pos,corr_resp,trials.thisRepN,trials.thisTrialN,trials.thisN,trials.thisIndex,trials_2.thisRepN,trials_2.thisTrialN,trials_2.thisN,trials_2.thisIndex,fixation.started,line1.started,line2.started,line3.started,line4.started,fixation.stopped,probe.started,key_resp.started,key_resp.keys,key_resp.corr,key_resp.rt,key_resp.duration,participant,session,date,expName,psychopyVersion,frameRate,
-50,x,0,0,0,0,,,,,44.77773920004256,45.74997080001049,45.74997080001049,45.74997080001049,45.74997080001049,45.783459900005255,46.74999130005017,46.74999130005017,x,1,1.4404808999970555,None,pallavi,001,2023-10-09_13h44.21.232,Sequential Learning,2023.1.3,59.88325160904184,
150,v,0,1,1,1,,,,,48.21656200004509,49.216539999993984,49.216539999993984,49.216539999993984,49.216539999993984,49.216539999993984,50.199946100008674,50.199946100008674,v,1,1.1782058999524452,None,pallavi,001,2023-10-09_13h44.21.232,Sequential Learning,2023.1.3,59.88325160904184,
50,c,0,2,2,2,,,,,51.39991279999958,52.3999821000034,52.3999821000034,52.3999821000034,52.3999821000034,52.3999821000034,53.39979650004534,53.39979650004534,c,1,1.2021003999980167,None,pallavi,001,2023-10-09_13h44.21.232,Sequential Learning,2023.1.3,59.88325160904184,
-150,z,0,3,3,3,,,,,54.63352070003748,55.633340500004124,55.633340500004124,55.633340500004124,55.633340500004124,55.633340500004124,56.633227800019085,56.633227800019085,z,1,0.6452558999881148,None,pallavi,001,2023-10-09_13h44.21.232,Sequential Learning,2023.1.3,59.88325160904184,
-50,x,1,0,4,0,,,,,57.30024360003881,58.300022300041746,58.300022300041746,58.300022300041746,58.300022300041746,58.300022300041746,59.29997180000646,59.29997180000646,x,1,0.6420636000111699,None,pallavi,001,2023-10-09_13h44.21.232,Sequential Learning,2023.1.3,59.88325160904184,
150,v,1,1,5,1,,,,,59.96676810004283,60.96664240001701,60.96664240001701,60.96664240001701,60.96664240001701,60.96664240001701,61.966650900023524,61.966650900023524,v,1,0.5838159999693744,None,pallavi,001,2023-10-09_13h44.21.232,Sequential Learning,2023.1.3,59.88325160904184,
50,c,1,2,6,2,,,,,62.583289100031834,63.58329209999647,63.58329209999647,63.58329209999647,63.58329209999647,63.58329209999647,64.58331710001221,64.58331710001221,c,1,0.6267561000422575,None,pallavi,001,2023-10-09_13h44.21.232,Sequential Learning,2023.1.3,59.88325160904184,
-150,z,1,3,7,3,,,,,65.2334428000031,66.23382459999993,66.23382459999993,66.23382459999993,66.23382459999993,66.23382459999993,67.23325069999555,67.23325069999555,z,1,0.5795571000198834,None,pallavi,001,2023-10-09_13h44.21.232,Sequential Learning,2023.1.3,59.88325160904184,
-50,x,2,0,8,0,,,,,67.83318459999282,68.83340450003743,68.83340450003743,68.83340450003743,68.83340450003743,68.83340450003743,69.83321160002379,69.83321160002379,x,1,0.5397509000031278,None,pallavi,001,2023-10-09_13h44.21.232,Sequential Learning,2023.1.3,59.88325160904184,
150,v,2,1,9,1,,,,,70.39980010001455,71.39979520003544,71.39979520003544,71.39979520003544,71.39979520003544,71.39979520003544,72.40000790002523,72.40000790002523,v,1,0.7078649000031874,None,pallavi,001,2023-10-09_13h44.21.232,Sequential Learning,2023.1.3,59.88325160904184,
50,c,2,2,10,2,,,,,73.13322710001376,74.13340019999305,74.13340019999305,74.13340019999305,74.13340019999305,74.13340019999305,75.13341520004906,75.13341520004906,c,1,0.7490493000368588,None,pallavi,001,2023-10-09_13h44.21.232,Sequential Learning,2023.1.3,59.88325160904184,
-150,z,2,3,11,3,,,,,75.89985530002741,76.90005890000612,76.90005890000612,76.90005890000612,76.90005890000612,76.90005890000612,77.89988280000398,77.89988280000398,z,1,0.7846802000422031,None,pallavi,001,2023-10-09_13h44.21.232,Sequential Learning,2023.1.3,59.88325160904184,
-50,x,3,0,12,0,,,,,78.71653680002782,79.716585999995,79.716585999995,79.716585999995,79.716585999995,79.716585999995,80.71656890003942,80.71656890003942,x,1,0.6449400000274181,None,pallavi,001,2023-10-09_13h44.21.232,Sequential Learning,2023.1.3,59.88325160904184,
150,v,3,1,13,1,,,,,81.3831367000239,82.38337930000853,82.38337930000853,82.38337930000853,82.38337930000853,82.38337930000853,83.3832420000108,83.3832420000108,v,1,0.355550599982962,None,pallavi,001,2023-10-09_13h44.21.232,Sequential Learning,2023.1.3,59.88325160904184,
50,c,3,2,14,2,,,,,83.76681060000556,84.7666475000442,84.7666475000442,84.7666475000442,84.7666475000442,84.7666475000442,85.7668656000169,85.7668656000169,c,1,0.4210283000138588,None,pallavi,001,2023-10-09_13h44.21.232,Sequential Learning,2023.1.3,59.88325160904184,
-150,z,3,3,15,3,,,,,86.21668120002141,87.21662520000245,87.21662520000245,87.21662520000245,87.21662520000245,87.21662520000245,88.21666860004188,88.21666860004188,z,1,0.6521662999875844,None,pallavi,001,2023-10-09_13h44.21.232,Sequential Learning,2023.1.3,59.88325160904184,
-50,x,4,0,16,0,,,,,88.8998781000264,89.89989709999645,89.89989709999645,89.89989709999645,89.89989709999645,89.89989709999645,90.89976770000067,90.89976770000067,x,1,0.30892219999805093,None,pallavi,001,2023-10-09_13h44.21.232,Sequential Learning,2023.1.3,59.88325160904184,
150,v,4,1,17,1,,,,,91.23317320004571,92.23327270004665,92.23327270004665,92.23327270004665,92.23327270004665,92.23327270004665,93.23331750003854,93.23331750003854,v,1,0.33453469997039065,None,pallavi,001,2023-10-09_13h44.21.232,Sequential Learning,2023.1.3,59.88325160904184,
50,c,4,2,18,2,,,,,93.59988740005065,94.59977750002872,94.59977750002872,94.59977750002872,94.59977750002872,94.59977750002872,95.58323430002201,95.58323430002201,c,1,0.8049211000325158,None,pallavi,001,2023-10-09_13h44.21.232,Sequential Learning,2023.1.3,59.88325160904184,
-150,z,4,3,19,3,,,,,96.416401399998,97.41642500000307,97.41642500000307,97.41642500000307,97.41642500000307,97.41642500000307,98.4164596000337,98.4164596000337,z,1,0.6414764000219293,None,pallavi,001,2023-10-09_13h44.21.232,Sequential Learning,2023.1.3,59.88325160904184,
-50,x,5,0,20,0,,,,,99.08303790003993,100.08338820002973,100.08338820002973,100.08338820002973,100.08338820002973,100.08338820002973,101.0830716000055,101.0830716000055,x,1,0.7128543999860995,None,pallavi,001,2023-10-09_13h44.21.232,Sequential Learning,2023.1.3,59.88325160904184,
150,v,5,1,21,1,,,,,101.81648370000767,102.81651360000251,102.81651360000251,102.81651360000251,102.81651360000251,102.81651360000251,103.81644980004057,103.81644980004057,v,1,0.5741846999735571,None,pallavi,001,2023-10-09_13h44.21.232,Sequential Learning,2023.1.3,59.88325160904184,
50,c,5,2,22,2,,,,,104.41646870004479,105.41657910001231,105.41657910001231,105.41657910001231,105.41657910001231,105.41657910001231,106.41649340000004,106.41649340000004,c,1,0.5905394000001252,None,pallavi,001,2023-10-09_13h44.21.232,Sequential Learning,2023.1.3,59.88325160904184,
-150,z,5,3,23,3,,,,,107.03298600000562,108.03308790002484,108.03308790002484,108.03308790002484,108.03308790002484,108.03308790002484,109.03320480004186,109.03320480004186,z,1,0.6183483999921009,None,pallavi,001,2023-10-09_13h44.21.232,Sequential Learning,2023.1.3,59.88325160904184,
-50,x,6,0,24,0,,,,,109.6832150000264,110.68310730002122,110.68310730002122,110.68310730002122,110.68310730002122,110.68310730002122,111.68330150004476,111.68330150004476,x,1,0.3320386999985203,None,pallavi,001,2023-10-09_13h44.21.232,Sequential Learning,2023.1.3,59.88325160904184,
150,v,6,1,25,1,,,,,112.03328820003662,113.03329470002791,113.03329470002791,113.03329470002791,113.03329470002791,113.03329470002791,114.03313860000344,114.03313860000344,v,1,0.36923840001691133,None,pallavi,001,2023-10-09_13h44.21.232,Sequential Learning,2023.1.3,59.88325160904184,
50,c,6,2,26,2,,,,,114.43389560002834,115.43314440001268,115.43314440001268,115.43314440001268,115.43314440001268,115.43314440001268,116.43309679999948,116.43309679999948,c,1,0.3974779999698512,None,pallavi,001,2023-10-09_13h44.21.232,Sequential Learning,2023.1.3,59.88325160904184,
-150,z,6,3,27,3,,,,,116.84993250004482,117.84977830003481,117.84977830003481,117.84977830003481,117.84977830003481,117.84977830003481,118.84968990000198,118.84968990000198,z,1,0.5295254999655299,None,pallavi,001,2023-10-09_13h44.21.232,Sequential Learning,2023.1.3,59.88325160904184,
-50,x,7,0,28,0,,,,,119.39970720000565,120.39976380002918,120.39976380002918,120.39976380002918,120.39976380002918,120.39976380002918,121.3996569000301,121.3996569000301,x,1,0.38690480001969263,None,pallavi,001,2023-10-09_13h44.21.232,Sequential Learning,2023.1.3,59.88325160904184,
150,v,7,1,29,1,,,,,121.81657260004431,122.81654160004109,122.81654160004109,122.81654160004109,122.81654160004109,122.81654160004109,123.81669020000845,123.81669020000845,v,1,0.6009920000215061,None,pallavi,001,2023-10-09_13h44.21.232,Sequential Learning,2023.1.3,59.88325160904184,
50,c,7,2,30,2,,,,,124.4498847000068,125.4496666000341,125.4496666000341,125.4496666000341,125.4496666000341,125.4496666000341,126.4499657000415,126.4499657000415,c,1,0.3441276000230573,None,pallavi,001,2023-10-09_13h44.21.232,Sequential Learning,2023.1.3,59.88325160904184,
-150,z,7,3,31,3,,,,,126.81642500002636,127.81640930002322,127.81640930002322,127.81640930002322,127.81640930002322,127.81640930002322,128.8165729000466,128.8165729000466,z,1,0.8573524999665096,None,pallavi,001,2023-10-09_13h44.21.232,Sequential Learning,2023.1.3,59.88325160904184,
-50,x,8,0,32,0,,,,,129.69962640001904,130.69968250003876,130.69968250003876,130.69968250003876,130.69968250003876,130.69968250003876,131.69980900001246,131.69980900001246,x,1,0.7641653000027873,None,pallavi,001,2023-10-09_13h44.21.232,Sequential Learning,2023.1.3,59.88325160904184,
150,v,8,1,33,1,,,,,132.4830780000193,133.48315010004444,133.48315010004444,133.48315010004444,133.48315010004444,133.48315010004444,134.4830847000121,134.4830847000121,v,1,0.6292638000450097,None,pallavi,001,2023-10-09_13h44.21.232,Sequential Learning,2023.1.3,59.88325160904184,
50,c,8,2,34,2,,,,,135.13299950002693,136.1332223000354,136.1332223000354,136.1332223000354,136.1332223000354,136.1332223000354,137.13326880004024,137.13326880004024,c,1,0.8796644000103697,None,pallavi,001,2023-10-09_13h44.21.232,Sequential Learning,2023.1.3,59.88325160904184,
-150,z,8,3,35,3,,,,,138.0332691000076,139.03321620001225,139.03321620001225,139.03321620001225,139.03321620001225,139.03321620001225,140.03317070001503,140.03317070001503,z,1,0.7003542000311427,None,pallavi,001,2023-10-09_13h44.21.232,Sequential Learning,2023.1.3,59.88325160904184,
-50,x,9,0,36,0,,,,,140.74949740001466,141.7498569000163,141.7498569000163,141.7498569000163,141.7498569000163,141.7498569000163,142.7501198000391,142.7501198000391,x,1,0.6070196999935433,None,pallavi,001,2023-10-09_13h44.21.232,Sequential Learning,2023.1.3,59.88325160904184,
150,v,9,1,37,1,,,,,143.38322600000538,144.38331590004964,144.38331590004964,144.38331590004964,144.38331590004964,144.38331590004964,145.38331050000852,145.38331050000852,v,1,0.6320571000105701,None,pallavi,001,2023-10-09_13h44.21.232,Sequential Learning,2023.1.3,59.88325160904184,
50,c,9,2,38,2,,,,,146.03309280000394,147.03329849999864,147.03329849999864,147.03329849999864,147.03329849999864,147.03329849999864,148.0330629000091,148.0330629000091,c,1,1.053702000004705,None,pallavi,001,2023-10-09_13h44.21.232,Sequential Learning,2023.1.3,59.88325160904184,
-150,z,9,3,39,3,,,,,149.11648810002953,150.09972500003641,150.09972500003641,150.09972500003641,150.09972500003641,150.11681850004243,151.09959630004596,151.09959630004596,z,1,0.5287842999678105,None,pallavi,001,2023-10-09_13h44.21.232,Sequential Learning,2023.1.3,59.88325160904184,
-50,x,10,0,40,0,,,,,151.64996420004172,152.64992940000957,152.64992940000957,152.64992940000957,152.64992940000957,152.64992940000957,153.64978950005025,153.64978950005025,x,1,0.5839454000233673,None,pallavi,001,2023-10-09_13h44.21.232,Sequential Learning,2023.1.3,59.88325160904184,
150,v,10,1,41,1,,,,,154.26641820004443,155.24962290003896,155.24962290003896,155.24962290003896,155.24962290003896,155.2665844000294,156.24989920004737,156.24989920004737,v,1,0.5635963999666274,None,pallavi,001,2023-10-09_13h44.21.232,Sequential Learning,2023.1.3,59.88325160904184,
50,c,10,2,42,2,,,,,156.83309870003723,157.8333236000035,157.8333236000035,157.8333236000035,157.8333236000035,157.8333236000035,158.83307789999526,158.83307789999526,c,1,0.7156956999679096,None,pallavi,001,2023-10-09_13h44.21.232,Sequential Learning,2023.1.3,59.88325160904184,
-150,z,10,3,43,3,,,,,159.56639779999387,160.56650780001655,160.56650780001655,160.56650780001655,160.56650780001655,160.56650780001655,161.5663757000002,161.5663757000002,z,1,0.38061150000430644,None,pallavi,001,2023-10-09_13h44.21.232,Sequential Learning,2023.1.3,59.88325160904184,
-50,x,11,0,44,0,,,,,161.9663259999943,162.96648860001005,162.96648860001005,162.96648860001005,162.96648860001005,162.96648860001005,163.9664713999955,163.9664713999955,x,1,0.8298713000258431,None,pallavi,001,2023-10-09_13h44.21.232,Sequential Learning,2023.1.3,59.88325160904184,
150,v,11,1,45,1,,,,,164.81662430003053,165.81654100003652,165.81654100003652,165.81654100003652,165.81654100003652,165.81654100003652,166.81648189999396,166.81648189999396,v,1,0.5291789000038989,None,pallavi,001,2023-10-09_13h44.21.232,Sequential Learning,2023.1.3,59.88325160904184,
50,c,11,2,46,2,,,,,167.3664284000406,168.3663720000186,168.3663720000186,168.3663720000186,168.3663720000186,168.3663720000186,169.36668410000857,169.36668410000857,c,1,0.7939170000026934,None,pallavi,001,2023-10-09_13h44.21.232,Sequential Learning,2023.1.3,59.88325160904184,
-150,z,11,3,47,3,,,,,170.18325500003994,171.18324100004975,171.18324100004975,171.18324100004975,171.18324100004975,171.18324100004975,172.18327820004197,172.18327820004197,z,1,0.46273679996374995,None,pallavi,001,2023-10-09_13h44.21.232,Sequential Learning,2023.1.3,59.88325160904184,
-50,x,12,0,48,0,,,,,172.66754049999872,173.64991530001862,173.64991530001862,173.64991530001862,173.64991530001862,173.6664945000084,174.6499472000287,174.6499472000287,x,1,0.7946222999598831,None,pallavi,001,2023-10-09_13h44.21.232,Sequential Learning,2023.1.3,59.88325160904184,
150,v,12,1,49,1,,,,,175.46644700004254,176.46642519999295,176.46642519999295,176.46642519999295,176.46642519999295,176.46642519999295,177.4665845000418,177.4665845000418,v,1,0.5636910000466742,None,pallavi,001,2023-10-09_13h44.21.232,Sequential Learning,2023.1.3,59.88325160904184,
50,c,12,2,50,2,,,,,178.04971880000085,179.04966170003172,179.04966170003172,179.04966170003172,179.04966170003172,179.04966170003172,180.04960090003442,180.04960090003442,c,1,0.8627895999816246,None,pallavi,001,2023-10-09_13h44.21.232,Sequential Learning,2023.1.3,59.88325160904184,
-150,z,12,3,51,3,,,,,180.93314710003324,181.93322470004205,181.93322470004205,181.93322470004205,181.93322470004205,181.93322470004205,182.93320040003164,182.93320040003164,z,1,0.6046792999841273,None,pallavi,001,2023-10-09_13h44.21.232,Sequential Learning,2023.1.3,59.88325160904184,
-50,x,13,0,52,0,,,,,183.56629670003895,184.54979210003512,184.54979210003512,184.54979210003512,184.54979210003512,184.5665055999998,185.56647850002628,185.56647850002628,x,1,0.7007056000293233,None,pallavi,001,2023-10-09_13h44.21.232,Sequential Learning,2023.1.3,59.88325160904184,
150,v,13,1,53,1,,,,,186.29956130002392,187.28311250003753,187.28311250003753,187.28311250003753,187.28311250003753,187.29972870001802,188.28325239999685,188.28325239999685,v,1,0.7509610999841243,None,pallavi,001,2023-10-09_13h44.21.232,Sequential Learning,2023.1.3,59.88325160904184,
50,c,13,2,54,2,,,,,189.06642560003093,190.066644800012,190.066644800012,190.066644800012,190.066644800012,190.066644800012,191.06635410001036,191.06635410001036,c,1,0.8117935999762267,None,pallavi,001,2023-10-09_13h44.21.232,Sequential Learning,2023.1.3,59.88325160904184,
-150,z,13,3,55,3,,,,,191.8997914000065,192.89978229999542,192.89978229999542,192.89978229999542,192.89978229999542,192.89978229999542,193.89986420003697,193.89986420003697,z,1,0.5144800000125542,None,pallavi,001,2023-10-09_13h44.21.232,Sequential Learning,2023.1.3,59.88325160904184,
-50,x,14,0,56,0,,,,,194.43312950001564,195.43317380000371,195.43317380000371,195.43317380000371,195.43317380000371,195.43317380000371,196.43313520000083,196.43313520000083,x,1,0.8920701000024565,None,pallavi,001,2023-10-09_13h44.21.232,Sequential Learning,2023.1.3,59.88325160904184,
150,v,14,1,57,1,,,,,197.34967419999884,198.34965660003945,198.34965660003945,198.34965660003945,198.34965660003945,198.34965660003945,199.3496831000084,199.3496831000084,v,1,0.6151401000097394,None,pallavi,001,2023-10-09_13h44.21.232,Sequential Learning,2023.1.3,59.88325160904184,
50,c,14,2,58,2,,,,,199.9828860000125,200.98320180003066,200.98320180003066,200.98320180003066,200.98320180003066,200.98320180003066,201.98308180004824,201.98308180004824,c,1,1.0280449999845587,None,pallavi,001,2023-10-09_13h44.21.232,Sequential Learning,2023.1.3,59.88325160904184,
-150,z,14,3,59,3,,,,,203.033029000042,204.03304080001544,204.03304080001544,204.03304080001544,204.03304080001544,204.03304080001544,205.03318070003297,205.03318070003297,z,1,0.7845309999538586,None,pallavi,001,2023-10-09_13h44.21.232,Sequential Learning,2023.1.3,59.88325160904184,
-50,x,15,0,60,0,,,,,205.84964840003522,206.83318549999967,206.83318549999967,206.83318549999967,206.83318549999967,206.84980349999387,207.84975510003278,207.84975510003278,x,1,0.8189079000148922,None,pallavi,001,2023-10-09_13h44.21.232,Sequential Learning,2023.1.3,59.88325160904184,
150,v,15,1,61,1,,,,,208.6996656000265,209.6831264999928,209.6831264999928,209.6831264999928,209.6831264999928,209.69977070001187,210.69969229999697,210.69969229999697,v,1,0.6470772000029683,None,pallavi,001,2023-10-09_13h44.21.232,Sequential Learning,2023.1.3,59.88325160904184,
50,c,15,2,62,2,,,,,211.36635150003713,212.3665303000016,212.3665303000016,212.3665303000016,212.3665303000016,212.3665303000016,213.36650020000525,213.36650020000525,c,1,0.835341600002721,None,pallavi,001,2023-10-09_13h44.21.232,Sequential Learning,2023.1.3,59.88325160904184,
-150,z,15,3,63,3,,,,,214.23306600004435,215.2331586999935,215.2331586999935,215.2331586999935,215.2331586999935,215.2331586999935,216.23305560002336,216.23305560002336,z,1,0.5881452999892645,None,pallavi,001,2023-10-09_13h44.21.232,Sequential Learning,2023.1.3,59.88325160904184,
-50,x,16,0,64,0,,,,,216.84964670002228,217.8498831000179,217.8498831000179,217.8498831000179,217.8498831000179,217.8498831000179,218.8497183000436,218.8497183000436,x,1,0.8067777000251226,None,pallavi,001,2023-10-09_13h44.21.232,Sequential Learning,2023.1.3,59.88325160904184,
150,v,16,1,65,1,,,,,219.68297700001858,220.68317500001285,220.68317500001285,220.68317500001285,220.68317500001285,220.68317500001285,221.68311909999466,221.68311909999466,v,1,0.7645632000057958,None,pallavi,001,2023-10-09_13h44.21.232,Sequential Learning,2023.1.3,59.88325160904184,
50,c,16,2,66,2,,,,,222.4663342999993,223.4664978000219,223.4664978000219,223.4664978000219,223.4664978000219,223.4664978000219,224.46653050003806,224.46653050003806,c,1,1.0052112999837846,None,pallavi,001,2023-10-09_13h44.21.232,Sequential Learning,2023.1.3,59.88325160904184,
-150,z,16,3,67,3,,,,,225.49971460003871,226.48324990004767,226.48324990004767,226.48324990004767,226.48324990004767,226.4998556000064,227.48322870000266,227.48322870000266,z,1,0.6664465999929234,None,pallavi,001,2023-10-09_13h44.21.232,Sequential Learning,2023.1.3,59.88325160904184,
-50,x,17,0,68,0,,,,,228.16622070001904,229.16643880004995,229.16643880004995,229.16643880004995,229.16643880004995,229.16643880004995,230.16635240003234,230.16635240003234,x,1,0.7323298000264913,None,pallavi,001,2023-10-09_13h44.21.232,Sequential Learning,2023.1.3,59.88325160904184,
150,v,17,1,69,1,,,,,230.9163472999935,231.89970800001174,231.89970800001174,231.89970800001174,231.89970800001174,231.91616250004154,232.9000112999929,232.9000112999929,v,1,0.7840606999816373,None,pallavi,001,2023-10-09_13h44.21.232,Sequential Learning,2023.1.3,59.88325160904184,
50,c,17,2,70,2,,,,,233.716173599998,234.69981270004064,234.69981270004064,234.69981270004064,234.69981270004064,234.71626250003465,235.69975090003572,235.69975090003572,c,1,0.7311601000255905,None,pallavi,001,2023-10-09_13h44.21.232,Sequential Learning,2023.1.3,59.88325160904184,
-150,z,17,3,71,3,,,,,236.44970660004765,237.44991750002373,237.44991750002373,237.44991750002373,237.44991750002373,237.44991750002373,238.4496616999968,238.4496616999968,z,1,0.5893775000586174,None,pallavi,001,2023-10-09_13h44.21.232,Sequential Learning,2023.1.3,59.88325160904184,
-50,x,18,0,72,0,,,,,239.06647840002552,240.04981500003487,240.04981500003487,240.04981500003487,240.04981500003487,240.0665607000119,241.06621520000044,241.06621520000044,x,1,1.0135829000500962,None,pallavi,001,2023-10-09_13h44.21.232,Sequential Learning,2023.1.3,59.88325160904184,
150,v,18,1,73,1,,,,,242.09982920001494,243.09961940004723,243.09961940004723,243.09961940004723,243.09961940004723,243.09961940004723,244.09960930002853,244.09960930002853,v,1,0.7425010000006296,None,pallavi,001,2023-10-09_13h44.21.232,Sequential Learning,2023.1.3,59.88325160904184,
50,c,18,2,74,2,,,,,244.86620220000623,245.86635980004212,245.86635980004212,245.86635980004212,245.86635980004212,245.86635980004212,246.86635820002994,246.86635820002994,c,1,1.0999975999584422,None,pallavi,001,2023-10-09_13h44.21.232,Sequential Learning,2023.1.3,59.88325160904184,
-150,z,18,3,75,3,,,,,247.98296710004797,248.98326390003785,248.98326390003785,248.98326390003785,248.98326390003785,248.98326390003785,249.982983599999,249.982983599999,z,1,0.5771412000176497,None,pallavi,001,2023-10-09_13h44.21.232,Sequential Learning,2023.1.3,59.88325160904184,
-50,x,19,0,76,0,,,,,250.5830852999934,251.5830721000093,251.5830721000093,251.5830721000093,251.5830721000093,251.5830721000093,252.58318720001262,252.58318720001262,x,1,0.9019085000036284,None,pallavi,001,2023-10-09_13h44.21.232,Sequential Learning,2023.1.3,59.88325160904184,
150,v,19,1,77,1,,,,,253.51632190000964,254.5163347000489,254.5163347000489,254.5163347000489,254.5163347000489,254.5163347000489,255.51622069999576,255.51622069999576,v,1,0.5914166999864392,None,pallavi,001,2023-10-09_13h44.21.232,Sequential Learning,2023.1.3,59.88325160904184,
50,c,19,2,78,2,,,,,256.13286770001287,257.1331008000416,257.1331008000416,257.1331008000416,257.1331008000416,257.1331008000416,258.13292490004096,258.13292490004096,c,1,0.6887245999532752,None,pallavi,001,2023-10-09_13h44.21.232,Sequential Learning,2023.1.3,59.88325160904184,
-150,z,19,3,79,3,,,,,258.8497413000441,259.84971999999834,259.84971999999834,259.84971999999834,259.84971999999834,259.84971999999834,260.8496653000475,260.8496653000475,z,1,0.6016075000516139,None,pallavi,001,2023-10-09_13h44.21.232,Sequential Learning,2023.1.3,59.88325160904184,
-50,x,20,0,80,0,,,,,261.4829768000054,262.4832063000067,262.4832063000067,262.4832063000067,262.4832063000067,262.4832063000067,263.4830995000084,263.4830995000084,x,1,0.6254761999589391,None,pallavi,001,2023-10-09_13h44.21.232,Sequential Learning,2023.1.3,59.88325160904184,
150,v,20,1,81,1,,,,,264.13307270000223,265.1331134000211,265.1331134000211,265.1331134000211,265.1331134000211,265.1331134000211,266.1331157000386,266.1331157000386,v,1,0.5845497000264004,None,pallavi,001,2023-10-09_13h44.21.232,Sequential Learning,2023.1.3,59.88325160904184,
50,c,20,2,82,2,,,,,266.7495334999985,267.7496259000036,267.7496259000036,267.7496259000036,267.7496259000036,267.7496259000036,268.7495371000259,268.7495371000259,c,1,1.6685493999975733,None,pallavi,001,2023-10-09_13h44.21.232,Sequential Learning,2023.1.3,59.88325160904184,
-150,z,20,3,83,3,,,,,270.44973500003107,271.4498050000402,271.4498050000402,271.4498050000402,271.4498050000402,271.4498050000402,272.4497192000272,272.4497192000272,z,1,0.5553881999803707,None,pallavi,001,2023-10-09_13h44.21.232,Sequential Learning,2023.1.3,59.88325160904184,
-50,x,21,0,84,0,,,,,273.03285680001136,274.03300039999885,274.03300039999885,274.03300039999885,274.03300039999885,274.03300039999885,275.0329083999968,275.0329083999968,x,1,0.9982185999979265,None,pallavi,001,2023-10-09_13h44.21.232,Sequential Learning,2023.1.3,59.88325160904184,
150,v,21,1,85,1,,,,,276.04954310000176,277.04959690000396,277.04959690000396,277.04959690000396,277.04959690000396,277.04959690000396,278.0496374000213,278.0496374000213,v,1,0.640855300007388,None,pallavi,001,2023-10-09_13h44.21.232,Sequential Learning,2023.1.3,59.88325160904184,
50,c,21,2,86,2,,,,,278.7160546000232,279.7166194000165,279.7166194000165,279.7166194000165,279.7166194000165,279.7166194000165,280.71607850003056,280.71607850003056,c,1,0.7556398000451736,None,pallavi,001,2023-10-09_13h44.21.232,Sequential Learning,2023.1.3,59.88325160904184,
-150,z,21,3,87,3,,,,,281.499625299999,282.4997275000205,282.4997275000205,282.4997275000205,282.4997275000205,282.4997275000205,283.49958930001594,283.49958930001594,z,1,1.1063959000166506,None,pallavi,001,2023-10-09_13h44.21.232,Sequential Learning,2023.1.3,59.88325160904184,
-50,x,22,0,88,0,,,,,284.63303359999554,285.6330404000473,285.6330404000473,285.6330404000473,285.6330404000473,285.6330404000473,286.6329002000275,286.6329002000275,x,1,0.7642882000072859,None,pallavi,001,2023-10-09_13h44.21.232,Sequential Learning,2023.1.3,59.88325160904184,
150,v,22,1,89,1,,,,,287.41626700002234,288.4163210000261,288.4163210000261,288.4163210000261,288.4163210000261,288.4163210000261,289.41621009999653,289.41621009999653,v,1,0.6325142999994569,None,pallavi,001,2023-10-09_13h44.21.232,Sequential Learning,2023.1.3,59.88325160904184,
50,c,22,2,90,2,,,,,290.0661584000336,291.0663802000345,291.0663802000345,291.0663802000345,291.0663802000345,291.0663802000345,292.06651950004743,292.06651950004743,c,1,1.281079399981536,None,pallavi,001,2023-10-09_13h44.21.232,Sequential Learning,2023.1.3,59.88325160904184,
-150,z,22,3,91,3,,,,,293.36610980000114,294.36645339999814,294.36645339999814,294.36645339999814,294.36645339999814,294.36645339999814,295.36612190003507,295.36612190003507,z,1,0.5913327999878675,None,pallavi,001,2023-10-09_13h44.21.232,Sequential Learning,2023.1.3,59.88325160904184,
-50,x,23,0,92,0,,,,,295.9828350000316,296.98273740004515,296.98273740004515,296.98273740004515,296.98273740004515,296.98273740004515,297.9828780000098,297.9828780000098,x,1,0.6483279999811202,None,pallavi,001,2023-10-09_13h44.21.232,Sequential Learning,2023.1.3,59.88325160904184,
150,v,23,1,93,1,,,,,298.64946240000427,299.6497319000191,299.6497319000191,299.6497319000191,299.6497319000191,299.6497319000191,300.6497325000237,300.6497325000237,v,1,0.8077460000058636,None,pallavi,001,2023-10-09_13h44.21.232,Sequential Learning,2023.1.3,59.88325160904184,
50,c,23,2,94,2,,,,,301.4829652000335,302.48311380000087,302.48311380000087,302.48311380000087,302.48311380000087,302.48311380000087,303.4828555000131,303.4828555000131,c,1,0.6020014999667183,None,pallavi,001,2023-10-09_13h44.21.232,Sequential Learning,2023.1.3,59.88325160904184,
-150,z,23,3,95,3,,,,,304.11598150001373,305.09966100001475,305.09966100001475,305.09966100001475,305.09966100001475,305.1161479000002,306.0998058000114,306.0998058000114,z,1,0.6493611999903806,None,pallavi,001,2023-10-09_13h44.21.232,Sequential Learning,2023.1.3,59.88325160904184,
-50,x,24,0,96,0,,,,,306.7662245000247,307.7662881000433,307.7662881000433,307.7662881000433,307.7662881000433,307.7662881000433,308.7659152999986,308.7659152999986,x,1,0.7289107000106014,None,pallavi,001,2023-10-09_13h44.21.232,Sequential Learning,2023.1.3,59.88325160904184,
150,v,24,1,97,1,,,,,309.5160206000437,310.4995794999995,310.4995794999995,310.4995794999995,310.4995794999995,310.5165265999967,311.4994976000162,311.4994976000162,v,1,0.5730957000050694,None,pallavi,001,2023-10-09_13h44.21.232,Sequential Learning,2023.1.3,59.88325160904184,
50,c,24,2,98,2,,,,,312.09960410004715,313.09984600002645,313.09984600002645,313.09984600002645,313.09984600002645,313.09984600002645,314.09950840001693,314.09950840001693,c,1,0.7395336999907158,None,pallavi,001,2023-10-09_13h44.21.232,Sequential Learning,2023.1.3,59.88325160904184,
-150,z,24,3,99,3,,,,,314.8660999000422,315.86633069999516,315.86633069999516,315.86633069999516,315.86633069999516,315.86633069999516,316.8666079000104,316.8666079000104,z,1,1.9328064000001177,None,pallavi,001,2023-10-09_13h44.21.232,Sequential Learning,2023.1.3,59.88325160904184,
-50,x,25,0,100,0,,,,,318.81620280002244,319.8162239000085,319.8162239000085,319.8162239000085,319.8162239000085,319.8162239000085,320.8162037000293,320.8162037000293,x,1,1.3245222000405192,None,pallavi,001,2023-10-09_13h44.21.232,Sequential Learning,2023.1.3,59.88325160904184,
150,v,25,1,101,1,,,,,322.1660847000312,323.16623150004307,323.16623150004307,323.16623150004307,323.16623150004307,323.16623150004307,324.1660255000461,324.1660255000461,v,1,0.8532170999678783,None,pallavi,001,2023-10-09_13h44.21.232,Sequential Learning,2023.1.3,59.88325160904184,
50,c,25,2,102,2,,,,,325.0496525000199,326.04948899999727,326.04948899999727,326.04948899999727,326.04948899999727,326.04948899999727,327.04955320002045,327.04955320002045,c,1,0.9888218999840319,None,pallavi,001,2023-10-09_13h44.21.232,Sequential Learning,2023.1.3,59.88325160904184,
-150,z,25,3,103,3,,,,,328.06615850003436,329.0662798000267,329.0662798000267,329.0662798000267,329.0662798000267,329.0662798000267,330.0662766000023,330.0662766000023,z,1,1.121063900005538,None,pallavi,001,2023-10-09_13h44.21.232,Sequential Learning,2023.1.3,59.88325160904184,
-50,x,26,0,104,0,,,,,331.21613960003015,332.21610670001246,332.21610670001246,332.21610670001246,332.21610670001246,332.21610670001246,333.21607830002904,333.21607830002904,x,1,0.750845099973958,None,pallavi,001,2023-10-09_13h44.21.232,Sequential Learning,2023.1.3,59.88325160904184,
150,v,26,1,105,1,,,,,333.99953810003353,334.9995460000355,334.9995460000355,334.9995460000355,334.9995460000355,334.9995460000355,335.99958360003075,335.99958360003075,v,1,0.5738316000206396,None,pallavi,001,2023-10-09_13h44.21.232,Sequential Learning,2023.1.3,59.88325160904184,
50,c,26,2,106,2,,,,,336.59957800002303,337.599700700026,337.599700700026,337.599700700026,337.599700700026,337.599700700026,338.5995858000242,338.5995858000242,c,1,0.7142912000417709,None,pallavi,001,2023-10-09_13h44.21.232,Sequential Learning,2023.1.3,59.88325160904184,
-150,z,26,3,107,3,,,,,339.33287870005006,340.33310410002014,340.33310410002014,340.33310410002014,340.33310410002014,340.33310410002014,341.33280550001655,341.33280550001655,z,1,0.8416623999946751,None,pallavi,001,2023-10-09_13h44.21.232,Sequential Learning,2023.1.3,59.88325160904184,
-50,x,27,0,108,0,,,,,342.19950760004576,343.19975680002244,343.19975680002244,343.19975680002244,343.19975680002244,343.19975680002244,344.1997168000089,344.1997168000089,x,1,0.8954000000376254,None,pallavi,001,2023-10-09_13h44.21.232,Sequential Learning,2023.1.3,59.88325160904184,
150,v,27,1,109,1,,,,,345.11616229999345,346.11611750000156,346.11611750000156,346.11611750000156,346.11611750000156,346.11611750000156,347.11616770003457,347.11616770003457,v,1,2.0209129999857396,None,pallavi,001,2023-10-09_13h44.21.232,Sequential Learning,2023.1.3,59.88325160904184,
50,c,27,2,110,2,,,,,349.166224500048,350.16614640003536,350.16614640003536,350.16614640003536,350.16614640003536,350.16614640003536,351.16615240002284,351.16615240002284,c,1,1.6949068999965675,None,pallavi,001,2023-10-09_13h44.21.232,Sequential Learning,2023.1.3,59.88325160904184,
-150,z,27,3,111,3,,,,,352.88289390003774,353.8830780000426,353.8830780000426,353.8830780000426,353.8830780000426,353.8830780000426,354.88279870001134,354.88279870001134,z,1,3.0529343000380322,None,pallavi,001,2023-10-09_13h44.21.232,Sequential Learning,2023.1.3,59.88325160904184,
-50,x,28,0,112,0,,,,,357.9659723000368,358.96617270004936,358.96617270004936,358.96617270004936,358.96617270004936,358.96617270004936,359.965955200023,359.965955200023,x,1,1.244013499992434,None,pallavi,001,2023-10-09_13h44.21.232,Sequential Learning,2023.1.3,59.88325160904184,
150,v,28,1,113,1,,,,,361.232773500029,362.216217600042,362.216217600042,362.216217600042,362.216217600042,362.2328824000433,363.21612150000874,363.21612150000874,v,1,0.6736381000373513,None,pallavi,001,2023-10-09_13h44.21.232,Sequential Learning,2023.1.3,59.88325160904184,
50,c,28,2,114,2,,,,,363.91608870000346,364.9162707999931,364.9162707999931,364.9162707999931,364.9162707999931,364.9162707999931,365.9161390000372,365.9161390000372,c,1,1.2149449000135064,None,pallavi,001,2023-10-09_13h44.21.232,Sequential Learning,2023.1.3,59.88325160904184,
-150,z,28,3,115,3,,,,,367.1494114000234,368.1496382000041,368.1496382000041,368.1496382000041,368.1496382000041,368.1496382000041,369.14968390000286,369.14968390000286,z,1,2.643734899989795,None,pallavi,001,2023-10-09_13h44.21.232,Sequential Learning,2023.1.3,59.88325160904184,
-50,x,29,0,116,0,,,,,371.8162603999954,372.8162735000369,372.8162735000369,372.8162735000369,372.8162735000369,372.8162735000369,373.81614579999587,373.81614579999587,x,1,0.7106814999715425,None,pallavi,001,2023-10-09_13h44.21.232,Sequential Learning,2023.1.3,59.88325160904184,
150,v,29,1,117,1,,,,,374.5494457000168,375.5495526000159,375.5495526000159,375.5495526000159,375.5495526000159,375.5495526000159,376.5494004000211,376.5494004000211,v,1,1.4051238999818452,None,pallavi,001,2023-10-09_13h44.21.232,Sequential Learning,2023.1.3,59.88325160904184,
50,c,29,2,118,2,,,,,377.9828951000236,378.98297030001413,378.98297030001413,378.98297030001413,378.98297030001413,378.98297030001413,379.9828584000352,379.9828584000352,c,1,1.1530303999898024,None,pallavi,001,2023-10-09_13h44.21.232,Sequential Learning,2023.1.3,59.88325160904184,
-150,z,29,3,119,3,,,,,381.1659978000098,382.1659955000505,382.1659955000505,382.1659955000505,382.1659955000505,382.1659955000505,383.16615830000956,383.16615830000956,z,1,0.5834109999705106,None,pallavi,001,2023-10-09_13h44.21.232,Sequential Learning,2023.1.3,59.88325160904184,
-50,x,30,0,120,0,,,,,383.7660273000365,384.7661269000382,384.7661269000382,384.7661269000382,384.7661269000382,384.7661269000382,385.76615550002316,385.76615550002316,x,1,0.7656541000469588,None,pallavi,001,2023-10-09_13h44.21.232,Sequential Learning,2023.1.3,59.88325160904184,
150,v,30,1,121,1,,,,,386.5494946000399,387.54958920000354,387.54958920000354,387.54958920000354,387.54958920000354,387.54958920000354,388.549568300019,388.549568300019,v,1,0.5295385999488644,None,pallavi,001,2023-10-09_13h44.21.232,Sequential Learning,2023.1.3,59.88325160904184,
50,c,30,2,122,2,,,,,389.0994289999944,390.0996104000369,390.0996104000369,390.0996104000369,390.0996104000369,390.0996104000369,391.09963750001043,391.09963750001043,c,1,1.1517027000081725,None,pallavi,001,2023-10-09_13h44.21.232,Sequential Learning,2023.1.3,59.88325160904184,
-150,z,30,3,123,3,,,,,392.2827843000414,393.28278589999536,393.28278589999536,393.28278589999536,393.28278589999536,393.28278589999536,394.28292070003226,394.28292070003226,z,1,0.9308382999734022,None,pallavi,001,2023-10-09_13h44.21.232,Sequential Learning,2023.1.3,59.88325160904184,
-50,x,31,0,124,0,,,,,395.23300410003867,396.2328508000355,396.2328508000355,396.2328508000355,396.2328508000355,396.2328508000355,397.23276380001334,397.23276380001334,x,1,1.2576108000357635,None,pallavi,001,2023-10-09_13h44.21.232,Sequential Learning,2023.1.3,59.88325160904184,
150,v,31,1,125,1,,,,,398.51606320001883,399.51602120004827,399.51602120004827,399.51602120004827,399.51602120004827,399.51602120004827,400.5160370999947,400.5160370999947,v,1,1.9501186999841593,None,pallavi,001,2023-10-09_13h44.21.232,Sequential Learning,2023.1.3,59.88325160904184,
50,c,31,2,126,2,,,,,402.48279460001504,403.4828392000054,403.4828392000054,403.4828392000054,403.4828392000054,403.4828392000054,404.48276480002096,404.48276480002096,c,1,1.4009870000299998,None,pallavi,001,2023-10-09_13h44.21.232,Sequential Learning,2023.1.3,59.88325160904184,
-150,z,31,3,127,3,,,,,405.91603540000506,406.91630989999976,406.91630989999976,406.91630989999976,406.91630989999976,406.91630989999976,407.91617700003553,407.91617700003553,z,1,0.626149500021711,None,pallavi,001,2023-10-09_13h44.21.232,Sequential Learning,2023.1.3,59.88325160904184,
-50,x,32,0,128,0,,,,,408.56602010002825,409.5662326000165,409.5662326000165,409.5662326000165,409.5662326000165,409.5662326000165,410.5661556000123,410.5661556000123,x,1,0.8528245000052266,None,pallavi,001,2023-10-09_13h44.21.232,Sequential Learning,2023.1.3,59.88325160904184,
150,v,32,1,129,1,,,,,411.44934380002087,412.4495060000336,412.4495060000336,412.4495060000336,412.4495060000336,412.4495060000336,413.4495486000087,413.4495486000087,v,1,0.5959123999928124,None,pallavi,001,2023-10-09_13h44.21.232,Sequential Learning,2023.1.3,59.88325160904184,
50,c,32,2,130,2,,,,,414.06594010000117,415.06592409999575,415.06592409999575,415.06592409999575,415.06592409999575,415.06592409999575,416.066186800017,416.066186800017,c,1,1.0333175000268966,None,pallavi,001,2023-10-09_13h44.21.232,Sequential Learning,2023.1.3,59.88325160904184,
-150,z,32,3,131,3,,,,,417.1158884000033,418.1161112000118,418.1161112000118,418.1161112000118,418.1161112000118,418.1161112000118,419.1160726000089,419.1160726000089,z,1,0.4564249000395648,None,pallavi,001,2023-10-09_13h44.21.232,Sequential Learning,2023.1.3,59.88325160904184,
-50,x,33,0,132,0,,,,,419.59942939999746,420.59953550004866,420.59953550004866,420.59953550004866,420.59953550004866,420.59953550004866,421.5997129000025,421.5997129000025,x,1,0.5392804999719374,None,pallavi,001,2023-10-09_13h44.21.232,Sequential Learning,2023.1.3,59.88325160904184,
150,v,33,1,133,1,,,,,422.16611540003214,423.1659104000428,423.1659104000428,423.1659104000428,423.1659104000428,423.1659104000428,424.1659489000449,424.1659489000449,v,1,0.9343982000136748,None,pallavi,001,2023-10-09_13h44.21.232,Sequential Learning,2023.1.3,59.88325160904184,
50,c,33,2,134,2,,,,,425.13266719999956,426.1328816000023,426.1328816000023,426.1328816000023,426.1328816000023,426.1328816000023,427.13273480004864,427.13273480004864,c,1,1.7000092000234872,None,pallavi,001,2023-10-09_13h44.21.232,Sequential Learning,2023.1.3,59.88325160904184,
-150,z,33,3,135,3,,,,,428.8492360000382,429.849402700027,429.849402700027,429.849402700027,429.849402700027,429.849402700027,430.84966330003226,430.84966330003226,z,1,1.3778216000064276,None,pallavi,001,2023-10-09_13h44.21.232,Sequential Learning,2023.1.3,59.88325160904184,
-50,x,34,0,136,0,,,,,432.24951690004673,433.2495329999947,433.2495329999947,433.2495329999947,433.2495329999947,433.2495329999947,434.2493299000198,434.2493299000198,x,1,0.8813237000140361,None,pallavi,001,2023-10-09_13h44.21.232,Sequential Learning,2023.1.3,59.88325160904184,
150,v,34,1,137,1,,,,,435.1493360000313,436.1495423000306,436.1495423000306,436.1495423000306,436.1495423000306,436.1495423000306,437.1492797000101,437.1492797000101,v,1,4.5981230000033975,None,pallavi,001,2023-10-09_13h44.21.232,Sequential Learning,2023.1.3,59.88325160904184,
50,c,34,2,138,2,,,,,441.76630090002436,442.76614600000903,442.76614600000903,442.76614600000903,442.76614600000903,442.76614600000903,443.76614780002274,443.76614780002274,c,1,1.0238605999620631,None,pallavi,001,2023-10-09_13h44.21.232,Sequential Learning,2023.1.3,59.88325160904184,
-150,z,34,3,139,3,,,,,444.816095200018,445.81609310000204,445.81609310000204,445.81609310000204,445.81609310000204,445.81609310000204,446.8161413000198,446.8161413000198,z,1,2.127825799980201,None,pallavi,001,2023-10-09_13h44.21.232,Sequential Learning,2023.1.3,59.88325160904184,
-50,x,35,0,140,0,,,,,448.96602260001237,449.96598150004866,449.96598150004866,449.96598150004866,449.96598150004866,449.96598150004866,450.9658277000417,450.9658277000417,x,1,2.132378400012385,None,pallavi,001,2023-10-09_13h44.21.232,Sequential Learning,2023.1.3,59.88325160904184,
150,v,35,1,141,1,,,,,453.11566480004694,454.1162494000164,454.1162494000164,454.1162494000164,454.1162494000164,454.1162494000164,455.11620370001765,455.11620370001765,v,1,3.174373999994714,None,pallavi,001,2023-10-09_13h44.21.232,Sequential Learning,2023.1.3,59.88325160904184,
50,c,35,2,142,2,,,,,458.3160598000395,459.3161137000425,459.3161137000425,459.3161137000425,459.3161137000425,459.3161137000425,460.316261400003,460.316261400003,c,1,1.8284856000100262,None,pallavi,001,2023-10-09_13h44.21.232,Sequential Learning,2023.1.3,59.88325160904184,
-150,z,35,3,143,3,,,,,462.1659026000416,463.1660762000247,463.1660762000247,463.1660762000247,463.1660762000247,463.1660762000247,464.16611410002224,464.16611410002224,z,1,2.1776776000042446,None,pallavi,001,2023-10-09_13h44.21.232,Sequential Learning,2023.1.3,59.88325160904184,
-50,x,36,0,144,0,,,,,466.36587430001236,467.3660277000163,467.3660277000163,467.3660277000163,467.3660277000163,467.3660277000163,468.3659697000403,468.3659697000403,x,1,0.9122663000016473,None,pallavi,001,2023-10-09_13h44.21.232,Sequential Learning,2023.1.3,59.88325160904184,
150,v,36,1,145,1,,,,,469.2994028000394,470.2994910000125,470.2994910000125,470.2994910000125,470.2994910000125,470.2994910000125,471.29932890000055,471.29932890000055,v,1,1.628399499983061,None,pallavi,001,2023-10-09_13h44.21.232,Sequential Learning,2023.1.3,59.88325160904184,
50,c,36,2,146,2,,,,,472.94949260004796,473.94957280001836,473.94957280001836,473.94957280001836,473.94957280001836,473.94957280001836,474.94946550001623,474.94946550001623,c,1,0.9851617999956943,None,pallavi,001,2023-10-09_13h44.21.232,Sequential Learning,2023.1.3,59.88325160904184,
-150,z,36,3,147,3,,,,,475.9660101000336,476.96592149999924,476.96592149999924,476.96592149999924,476.96592149999924,476.96592149999924,477.96593570004916,477.96593570004916,z,1,0.977093200024683,None,pallavi,001,2023-10-09_13h44.21.232,Sequential Learning,2023.1.3,59.88325160904184,
-50,x,37,0,148,0,,,,,478.9659040000406,479.9658606000012,479.9658606000012,479.9658606000012,479.9658606000012,479.9658606000012,480.9659512999933,480.9659512999933,x,1,0.8688119999715127,None,pallavi,001,2023-10-09_13h44.21.232,Sequential Learning,2023.1.3,59.88325160904184,
150,v,37,1,149,1,,,,,481.86588960001245,482.8660247999942,482.8660247999942,482.8660247999942,482.8660247999942,482.8660247999942,483.86583010002505,483.86583010002505,v,1,0.982404799957294,None,pallavi,001,2023-10-09_13h44.21.232,Sequential Learning,2023.1.3,59.88325160904184,
50,c,37,2,150,2,,,,,484.86613770003896,485.8661280000233,485.8661280000233,485.8661280000233,485.8661280000233,485.8661280000233,486.8659031999996,486.8659031999996,c,1,1.4447831999859773,None,pallavi,001,2023-10-09_13h44.21.232,Sequential Learning,2023.1.3,59.88325160904184,
-150,z,37,3,151,3,,,,,488.33266730001196,489.3327852000366,489.3327852000366,489.3327852000366,489.3327852000366,489.3327852000366,490.3325841000187,490.3325841000187,z,1,0.9177851999993436,None,pallavi,001,2023-10-09_13h44.21.232,Sequential Learning,2023.1.3,59.88325160904184,
-50,x,38,0,152,0,,,,,491.28278000000864,492.2826022999943,492.2826022999943,492.2826022999943,492.2826022999943,492.2826022999943,493.2826138000237,493.2826138000237,x,1,0.7633763999911025,None,pallavi,001,2023-10-09_13h44.21.232,Sequential Learning,2023.1.3,59.88325160904184,
150,v,38,1,153,1,,,,,494.06591659999685,495.0660160999978,495.0660160999978,495.0660160999978,495.0660160999978,495.0660160999978,496.0659706000006,496.0659706000006,v,1,1.1937876000301912,None,pallavi,001,2023-10-09_13h44.21.232,Sequential Learning,2023.1.3,59.88325160904184,
50,c,38,2,154,2,,,,,497.2825501000043,498.2661782000214,498.2661782000214,498.2661782000214,498.2661782000214,498.2828507000231,499.2825178000494,499.2825178000494,c,1,1.1493333000107668,None,pallavi,001,2023-10-09_13h44.21.232,Sequential Learning,2023.1.3,59.88325160904184,
-150,z,38,3,155,3,,,,,500.44918650004547,501.44949730002554,501.44949730002554,501.44949730002554,501.44949730002554,501.44949730002554,502.44928310002433,502.44928310002433,z,1,0.6837924999999814,None,pallavi,001,2023-10-09_13h44.21.232,Sequential Learning,2023.1.3,59.88325160904184,
-50,x,39,0,156,0,,,,,503.1492998000467,504.1495736000361,504.1495736000361,504.1495736000361,504.1495736000361,504.1495736000361,505.1492160000489,505.1492160000489,x,1,0.6412780999671668,None,pallavi,001,2023-10-09_13h44.21.232,Sequential Learning,2023.1.3,59.88325160904184,
150,v,39,1,157,1,,,,,505.8157479999936,506.8160151000484,506.8160151000484,506.8160151000484,506.8160151000484,506.8160151000484,507.81623039999977,507.81623039999977,v,1,1.1100463999900967,None,pallavi,001,2023-10-09_13h44.21.232,Sequential Learning,2023.1.3,59.88325160904184,
50,c,39,2,158,2,,,,,508.9492714999942,509.9497468000045,509.9497468000045,509.9497468000045,509.9497468000045,509.9497468000045,510.94932290003635,510.94932290003635,c,1,1.6002879000152461,None,pallavi,001,2023-10-09_13h44.21.232,Sequential Learning,2023.1.3,59.88325160904184,
-150,z,39,3,159,3,,,,,512.5657525000279,513.565861500043,513.565861500043,513.565861500043,513.565861500043,513.565861500043,514.5659571000142,514.5659571000142,z,1,1.200568599975668,None,pallavi,001,2023-10-09_13h44.21.232,Sequential Learning,2023.1.3,59.88325160904184,
-50,x,40,0,160,0,,,,,515.799187000026,516.7994025000371,516.7994025000371,516.7994025000371,516.7994025000371,516.7994025000371,517.7992435000488,517.7992435000488,x,1,0.7176674000220373,None,pallavi,001,2023-10-09_13h44.21.232,Sequential Learning,2023.1.3,59.88325160904184,
150,v,40,1,161,1,,,,,518.5493575000437,519.5493513999972,519.5493513999972,519.5493513999972,519.5493513999972,519.5493513999972,520.5492631000234,520.5492631000234,v,1,0.7608109000138938,None,pallavi,001,2023-10-09_13h44.21.232,Sequential Learning,2023.1.3,59.88325160904184,
50,c,40,2,162,2,,,,,521.3325016000308,522.3327273000032,522.3327273000032,522.3327273000032,522.3327273000032,522.3327273000032,523.3327348000021,523.3327348000021,c,1,1.044584000017494,None,pallavi,001,2023-10-09_13h44.21.232,Sequential Learning,2023.1.3,59.88325160904184,
-150,z,40,3,163,3,,,,,524.3994548000046,525.3994532999932,525.3994532999932,525.3994532999932,525.3994532999932,525.3994532999932,526.3991567000048,526.3991567000048,z,1,0.7519714999943972,None,pallavi,001,2023-10-09_13h44.21.232,Sequential Learning,2023.1.3,59.88325160904184,
-50,x,41,0,164,0,,,,,527.182526700024,528.1826616000035,528.1826616000035,528.1826616000035,528.1826616000035,528.1826616000035,529.182753000001,529.182753000001,x,1,0.6324351000366732,None,pallavi,001,2023-10-09_13h44.21.232,Sequential Learning,2023.1.3,59.88325160904184,
150,v,41,1,165,1,,,,,529.8325954000466,530.8326027000439,530.8326027000439,530.8326027000439,530.8326027000439,530.8326027000439,531.8327823000145,531.8327823000145,v,1,0.6486772999633104,None,pallavi,001,2023-10-09_13h44.21.232,Sequential Learning,2023.1.3,59.88325160904184,
50,c,41,2,166,2,,,,,532.499364599993,533.49928800005,533.49928800005,533.49928800005,533.49928800005,533.49928800005,534.4994233000325,534.4994233000325,c,1,1.3285697000101209,None,pallavi,001,2023-10-09_13h44.21.232,Sequential Learning,2023.1.3,59.88325160904184,
-150,z,41,3,167,3,,,,,535.849230199994,536.8493400000152,536.8493400000152,536.8493400000152,536.8493400000152,536.8493400000152,537.8492369000451,537.8492369000451,z,1,0.7431468999711797,None,pallavi,001,2023-10-09_13h44.21.232,Sequential Learning,2023.1.3,59.88325160904184,
-50,x,42,0,168,0,,,,,538.6158183999942,539.61602950003,539.61602950003,539.61602950003,539.61602950003,539.61602950003,540.6159612000338,540.6159612000338,x,1,0.9214817000320181,None,pallavi,001,2023-10-09_13h44.21.232,Sequential Learning,2023.1.3,59.88325160904184,
150,v,42,1,169,1,,,,,541.5658445000299,542.5658816000214,542.5658816000214,542.5658816000214,542.5658816000214,542.5658816000214,543.5660271000233,543.5660271000233,v,1,0.5866237000445835,None,pallavi,001,2023-10-09_13h44.21.232,Sequential Learning,2023.1.3,59.88325160904184,
50,c,42,2,170,2,,,,,544.1825966000324,545.1821885000099,545.1821885000099,545.1821885000099,545.1821885000099,545.1821885000099,546.1824808000238,546.1824808000238,c,1,0.9357539999764413,None,pallavi,001,2023-10-09_13h44.21.232,Sequential Learning,2023.1.3,59.88325160904184,
-150,z,42,3,171,3,,,,,547.1492884000181,548.1494662000332,548.1494662000332,548.1494662000332,548.1494662000332,548.1494662000332,549.149364300014,549.149364300014,z,1,0.48435699997935444,None,pallavi,001,2023-10-09_13h44.21.232,Sequential Learning,2023.1.3,59.88325160904184,
-50,x,43,0,172,0,,,,,549.6659964999999,550.6657943000318,550.6657943000318,550.6657943000318,550.6657943000318,550.6657943000318,551.6660064000171,551.6660064000171,x,1,0.6979321000399068,None,pallavi,001,2023-10-09_13h44.21.232,Sequential Learning,2023.1.3,59.88325160904184,
150,v,43,1,173,1,,,,,552.3825386000099,553.3827015000279,553.3827015000279,553.3827015000279,553.3827015000279,553.3827015000279,554.3824890000396,554.3824890000396,v,1,0.7026685000164434,None,pallavi,001,2023-10-09_13h44.21.232,Sequential Learning,2023.1.3,59.88325160904184,
50,c,43,2,174,2,,,,,555.1158858000417,556.116013300023,556.116013300023,556.116013300023,556.116013300023,556.116013300023,557.1158926000353,557.1158926000353,c,1,2.0157383999903686,None,pallavi,001,2023-10-09_13h44.21.232,Sequential Learning,2023.1.3,59.88325160904184,
-150,z,43,3,175,3,,,,,559.149215100042,560.1493396000005,560.1493396000005,560.1493396000005,560.1493396000005,560.1493396000005,561.1492179000052,561.1492179000052,z,1,0.6600363000179641,None,pallavi,001,2023-10-09_13h44.21.232,Sequential Learning,2023.1.3,59.88325160904184,
-50,x,44,0,176,0,,,,,561.8323988000047,562.8326688000234,562.8326688000234,562.8326688000234,562.8326688000234,562.8326688000234,563.8325092000305,563.8325092000305,x,1,0.8665689000044949,None,pallavi,001,2023-10-09_13h44.21.232,Sequential Learning,2023.1.3,59.88325160904184,
150,v,44,1,177,1,,,,,564.7158503000392,565.7159463000135,565.7159463000135,565.7159463000135,565.7159463000135,565.7159463000135,566.7158146000002,566.7158146000002,v,1,0.7783463000087067,None,pallavi,001,2023-10-09_13h44.21.232,Sequential Learning,2023.1.3,59.88325160904184,
50,c,44,2,178,2,,,,,567.5158826000406,568.5158669000375,568.5158669000375,568.5158669000375,568.5158669000375,568.5158669000375,569.5156920000445,569.5156920000445,c,1,1.0213974000071175,None,pallavi,001,2023-10-09_13h44.21.232,Sequential Learning,2023.1.3,59.88325160904184,
-150,z,44,3,179,3,,,,,570.5657617000397,571.5658040000126,571.5658040000126,571.5658040000126,571.5658040000126,571.5658040000126,572.5659374000388,572.5659374000388,z,1,0.49845600000116974,None,pallavi,001,2023-10-09_13h44.21.232,Sequential Learning,2023.1.3,59.88325160904184,
-50,x,45,0,180,0,,,,,573.082561200019,574.0827043000027,574.0827043000027,574.0827043000027,574.0827043000027,574.0827043000027,575.0825489000417,575.0825489000417,x,1,1.4802222999860533,None,pallavi,001,2023-10-09_13h44.21.232,Sequential Learning,2023.1.3,59.88325160904184,
150,v,45,1,181,1,,,,,576.5825549000292,577.5823957000393,577.5823957000393,577.5823957000393,577.5823957000393,577.5823957000393,578.5826308000251,578.5826308000251,v,1,0.9142860000138171,None,pallavi,001,2023-10-09_13h44.21.232,Sequential Learning,2023.1.3,59.88325160904184,
50,c,45,2,182,2,,,,,579.5159108000225,580.5158094000071,580.5158094000071,580.5158094000071,580.5158094000071,580.5158094000071,581.5158565000165,581.5158565000165,c,1,1.4346654000109993,None,pallavi,001,2023-10-09_13h44.21.232,Sequential Learning,2023.1.3,59.88325160904184,
-150,z,45,3,183,3,,,,,582.9826085999957,583.9826185000129,583.9826185000129,583.9826185000129,583.9826185000129,583.9826185000129,584.9827052000328,584.9827052000328,z,1,1.6401475999737158,None,pallavi,001,2023-10-09_13h44.21.232,Sequential Learning,2023.1.3,59.88325160904184,
-50,x,46,0,184,0,,,,,586.64912680001,587.6492653000169,587.6492653000169,587.6492653000169,587.6492653000169,587.6492653000169,588.6493031000136,588.6493031000136,x,1,0.7616891000070609,None,pallavi,001,2023-10-09_13h44.21.232,Sequential Learning,2023.1.3,59.88325160904184,
150,v,46,1,185,1,,,,,589.4324577000225,590.4158496000455,590.4158496000455,590.4158496000455,590.4158496000455,590.4324398000026,591.4159135000082,591.4159135000082,v,1,0.5142373999697156,None,pallavi,001,2023-10-09_13h44.21.232,Sequential Learning,2023.1.3,59.88325160904184,
50,c,46,2,186,2,,,,,591.9491967000067,592.9493184000021,592.9493184000021,592.9493184000021,592.9493184000021,592.9493184000021,593.9491965000052,593.9491965000052,c,1,0.5927482999977656,None,pallavi,001,2023-10-09_13h44.21.232,Sequential Learning,2023.1.3,59.88325160904184,
-150,z,46,3,187,3,,,,,594.5658088000491,595.5658424000139,595.5658424000139,595.5658424000139,595.5658424000139,595.5658424000139,596.5657421000069,596.5657421000069,z,1,1.0817111000069417,None,pallavi,001,2023-10-09_13h44.21.232,Sequential Learning,2023.1.3,59.88325160904184,
-50,x,47,0,188,0,,,,,597.6657224000082,598.6658201999962,598.6658201999962,598.6658201999962,598.6658201999962,598.6658201999962,599.6656471000169,599.6656471000169,x,1,1.1565273000160232,None,pallavi,001,2023-10-09_13h44.21.232,Sequential Learning,2023.1.3,59.88325160904184,
150,v,47,1,189,1,,,,,600.8492416000227,601.8494248000206,601.8494248000206,601.8494248000206,601.8494248000206,601.8494248000206,602.8492967000348,602.8492967000348,v,1,0.7945339999860153,None,pallavi,001,2023-10-09_13h44.21.232,Sequential Learning,2023.1.3,59.88325160904184,
50,c,47,2,190,2,,,,,603.6658678000094,604.665784700017,604.665784700017,604.665784700017,604.665784700017,604.665784700017,605.66595590004,605.66595590004,c,1,0.667450100008864,None,pallavi,001,2023-10-09_13h44.21.232,Sequential Learning,2023.1.3,59.88325160904184,
-150,z,47,3,191,3,,,,,606.3656967999996,607.3658135000151,607.3658135000151,607.3658135000151,607.3658135000151,607.3658135000151,608.3657446000143,608.3657446000143,z,1,0.7969642000389285,None,pallavi,001,2023-10-09_13h44.21.232,Sequential Learning,2023.1.3,59.88325160904184,
-50,x,48,0,192,0,,,,,609.1825759000494,610.1827034000307,610.1827034000307,610.1827034000307,610.1827034000307,610.1827034000307,611.1825572000234,611.1825572000234,x,1,0.6231801999965683,None,pallavi,001,2023-10-09_13h44.21.232,Sequential Learning,2023.1.3,59.88325160904184,
150,v,48,1,193,1,,,,,611.8324623000226,612.8326023000409,612.8326023000409,612.8326023000409,612.8326023000409,612.8326023000409,613.8325545000262,613.8325545000262,v,1,0.6530134999775328,None,pallavi,001,2023-10-09_13h44.21.232,Sequential Learning,2023.1.3,59.88325160904184,
50,c,48,2,194,2,,,,,614.5157275000238,615.5157908000401,615.5157908000401,615.5157908000401,615.5157908000401,615.5157908000401,616.5159943000181,616.5159943000181,c,1,0.7968987000058405,None,pallavi,001,2023-10-09_13h44.21.232,Sequential Learning,2023.1.3,59.88325160904184,
-150,z,48,3,195,3,,,,,617.332332800026,618.3326280000038,618.3326280000038,618.3326280000038,618.3326280000038,618.3326280000038,619.3326865000417,619.3326865000417,z,1,0.8182731000124477,None,pallavi,001,2023-10-09_13h44.21.232,Sequential Learning,2023.1.3,59.88325160904184,
-50,x,49,0,196,0,,,,,620.1824350000243,621.1656944000279,621.1656944000279,621.1656944000279,621.1656944000279,621.1826148999971,622.1659551000339,622.1659551000339,x,1,0.9217203999869525,None,pallavi,001,2023-10-09_13h44.21.232,Sequential Learning,2023.1.3,59.88325160904184,
150,v,49,1,197,1,,,,,623.1157846000278,624.1159022000502,624.1159022000502,624.1159022000502,624.1159022000502,624.1159022000502,625.1156439000042,625.1156439000042,v,1,0.7125578999985009,None,pallavi,001,2023-10-09_13h44.21.232,Sequential Learning,2023.1.3,59.88325160904184,
50,c,49,2,198,2,,,,,625.8492396000074,626.8492867000168,626.8492867000168,626.8492867000168,626.8492867000168,626.8492867000168,627.8491824000375,627.8491824000375,c,1,0.8594075000146404,None,pallavi,001,2023-10-09_13h44.21.232,Sequential Learning,2023.1.3,59.88325160904184,
-150,z,49,3,199,3,,,,,628.7323749000207,629.732558800024,629.732558800024,629.732558800024,629.732558800024,629.732558800024,630.7324729000102,630.7324729000102,z,1,3.9380272999987938,None,pallavi,001,2023-10-09_13h44.21.232,Sequential Learning,2023.1.3,59.88325160904184,
-50,x,,,,,0,0,0,0,634.7013846000191,635.698976100015,635.698976100015,635.698976100015,635.698976100015,635.715578400006,636.698984800023,636.698984800023,x,1,0.8227736000553705,None,pallavi,001,2023-10-09_13h44.21.232,Sequential Learning,2023.1.3,59.88325160904184,
-50,x,,,,,0,1,1,0,637.5487728000153,638.5495942000416,638.5495942000416,638.5495942000416,638.5495942000416,638.5495942000416,639.5493703000247,639.5493703000247,x,1,0.8074130000313744,None,pallavi,001,2023-10-09_13h44.21.232,Sequential Learning,2023.1.3,59.88325160904184,
50,c,,,,,0,2,2,2,640.3823153999983,641.38242920005,641.38242920005,641.38242920005,641.38242920005,641.38242920005,642.3823589000385,642.3823589000385,c,1,0.733569800038822,None,pallavi,001,2023-10-09_13h44.21.232,Sequential Learning,2023.1.3,59.88325160904184,
50,c,,,,,0,3,3,2,643.132314699993,644.132610300032,644.132610300032,644.132610300032,644.132610300032,644.132610300032,645.1324036000296,645.1324036000296,c,1,0.5775169000262395,None,pallavi,001,2023-10-09_13h44.21.232,Sequential Learning,2023.1.3,59.88325160904184,
150,v,,,,,1,0,4,1,645.7324084000429,646.7323816000135,646.7323816000135,646.7323816000135,646.7323816000135,646.7323816000135,647.7323609000305,647.7323609000305,v,1,0.5349979000166059,None,pallavi,001,2023-10-09_13h44.21.232,Sequential Learning,2023.1.3,59.88325160904184,
-150,z,,,,,1,1,5,3,648.298961499997,649.2992297000019,649.2992297000019,649.2992297000019,649.2992297000019,649.2992297000019,650.2992248000228,650.2992248000228,z,1,0.7667611999786459,None,pallavi,001,2023-10-09_13h44.21.232,Sequential Learning,2023.1.3,59.88325160904184,
50,c,,,,,1,2,6,2,651.0823251000256,652.0823993000085,652.0823993000085,652.0823993000085,652.0823993000085,652.0823993000085,653.0825519000064,653.0825519000064,c,1,1.1747272000066005,None,pallavi,001,2023-10-09_13h44.21.232,Sequential Learning,2023.1.3,59.88325160904184,
150,v,,,,,1,3,7,1,654.2823485000408,655.2825078000315,655.2825078000315,655.2825078000315,655.2825078000315,655.2825078000315,656.2823454000172,656.2823454000172,v,1,0.5820102999568917,None,pallavi,001,2023-10-09_13h44.21.232,Sequential Learning,2023.1.3,59.88325160904184,
50,c,,,,,2,0,8,2,656.8826647000387,657.8823295000475,657.8823295000475,657.8823295000475,657.8823295000475,657.8823295000475,658.882385600009,658.882385600009,c,1,1.2414613000000827,None,pallavi,001,2023-10-09_13h44.21.232,Sequential Learning,2023.1.3,59.88325160904184,
-150,z,,,,,2,1,9,3,660.1491905000294,661.1489661000087,661.1489661000087,661.1489661000087,661.1489661000087,661.1489661000087,662.1492117000162,662.1492117000162,z,1,0.9011510999989696,None,pallavi,001,2023-10-09_13h44.21.232,Sequential Learning,2023.1.3,59.88325160904184,
-50,x,,,,,2,2,10,0,663.0825219000108,664.0825878000469,664.0825878000469,664.0825878000469,664.0825878000469,664.0825878000469,665.0826220000163,665.0826220000163,x,1,0.6810401000548154,None,pallavi,001,2023-10-09_13h44.21.232,Sequential Learning,2023.1.3,59.88325160904184,
150,v,,,,,2,3,11,1,665.7822002000175,666.7823651000508,666.7823651000508,666.7823651000508,666.7823651000508,666.7823651000508,667.782312299998,667.782312299998,v,1,0.5643020999850705,None,pallavi,001,2023-10-09_13h44.21.232,Sequential Learning,2023.1.3,59.88325160904184,
-150,z,,,,,3,0,12,3,668.3655855000252,669.3658530000248,669.3658530000248,669.3658530000248,669.3658530000248,669.3658530000248,670.3657036999939,670.3657036999939,z,1,1.5963056000182405,None,pallavi,001,2023-10-09_13h44.21.232,Sequential Learning,2023.1.3,59.88325160904184,
50,c,,,,,3,1,13,2,671.9823349000071,672.9657251000172,672.9657251000172,672.9657251000172,672.9657251000172,672.9823993000318,673.9655542999972,673.9655542999972,c,1,0.7971744000096805,None,pallavi,001,2023-10-09_13h44.21.232,Sequential Learning,2023.1.3,59.88325160904184,
150,v,,,,,3,2,14,1,674.7823619000264,675.7824553000391,675.7824553000391,675.7824553000391,675.7824553000391,675.7824553000391,676.7824878999963,676.7824878999963,v,1,0.5817794000031427,None,pallavi,001,2023-10-09_13h44.21.232,Sequential Learning,2023.1.3,59.88325160904184,
150,v,,,,,3,3,15,1,677.3824397000135,678.3825561000267,678.3825561000267,678.3825561000267,678.3825561000267,678.3825561000267,679.3823103000177,679.3823103000177,v,1,0.685618199990131,None,pallavi,001,2023-10-09_13h44.21.232,Sequential Learning,2023.1.3,59.88325160904184,
-150,z,,,,,4,0,16,3,680.0991659000283,681.0991632000078,681.0991632000078,681.0991632000078,681.0991632000078,681.0991632000078,682.0990946000093,682.0990946000093,z,1,1.2073702000197954,None,pallavi,001,2023-10-09_13h44.21.232,Sequential Learning,2023.1.3,59.88325160904184,
50,c,,,,,4,1,17,2,683.3322559000226,684.3324793000356,684.3324793000356,684.3324793000356,684.3324793000356,684.3324793000356,685.3324396000244,685.3324396000244,c,1,1.2690233000321314,None,pallavi,001,2023-10-09_13h44.21.232,Sequential Learning,2023.1.3,59.88325160904184,
-50,x,,,,,4,2,18,0,686.6324551000143,687.6324609000003,687.6324609000003,687.6324609000003,687.6324609000003,687.6324609000003,688.6325310000102,688.6325310000102,x,1,0.8205245999852195,None,pallavi,001,2023-10-09_13h44.21.232,Sequential Learning,2023.1.3,59.88325160904184,
-50,x,,,,,4,3,19,0,689.4821667000069,690.4824628000497,690.4824628000497,690.4824628000497,690.4824628000497,690.4824628000497,691.4823115000036,691.4823115000036,x,1,0.6043180000269786,None,pallavi,001,2023-10-09_13h44.21.232,Sequential Learning,2023.1.3,59.88325160904184,
150,v,,,,,5,0,20,1,692.1154432000476,693.0991303000483,693.0991303000483,693.0991303000483,693.0991303000483,693.1156889999984,694.0991786000086,694.0991786000086,v,1,0.5630982000147924,None,pallavi,001,2023-10-09_13h44.21.232,Sequential Learning,2023.1.3,59.88325160904184,
150,v,,,,,5,1,21,1,694.6823960000183,695.6824871000135,695.6824871000135,695.6824871000135,695.6824871000135,695.6824871000135,696.6825704000075,696.6825704000075,v,1,0.8859881000244059,None,pallavi,001,2023-10-09_13h44.21.232,Sequential Learning,2023.1.3,59.88325160904184,
150,v,,,,,5,2,22,1,697.5993462000042,698.5992491000216,698.5992491000216,698.5992491000216,698.5992491000216,698.5992491000216,699.5992722000228,699.5992722000228,v,1,0.7159062999999151,None,pallavi,001,2023-10-09_13h44.21.232,Sequential Learning,2023.1.3,59.88325160904184,
150,v,,,,,5,3,23,1,700.33231170004,701.332424000022,701.332424000022,701.332424000022,701.332424000022,701.332424000022,702.3322294999962,702.3322294999962,v,1,0.44108100002631545,None,pallavi,001,2023-10-09_13h44.21.232,Sequential Learning,2023.1.3,59.88325160904184,
50,c,,,,,6,0,24,2,702.7991174000199,703.7992090000189,703.7992090000189,703.7992090000189,703.7992090000189,703.7992090000189,704.7990940000163,704.7990940000163,c,1,0.5917832999839447,None,pallavi,001,2023-10-09_13h44.21.232,Sequential Learning,2023.1.3,59.88325160904184,
150,v,,,,,6,1,25,1,705.4157712000306,706.4156823999947,706.4156823999947,706.4156823999947,706.4156823999947,706.4156823999947,707.4155409000232,707.4155409000232,v,1,0.6060074000270106,None,pallavi,001,2023-10-09_13h44.21.232,Sequential Learning,2023.1.3,59.88325160904184,
50,c,,,,,6,2,26,2,708.0489344000234,709.0490964000346,709.0490964000346,709.0490964000346,709.0490964000346,709.0490964000346,710.048927100026,710.048927100026,c,1,0.9114842999842949,None,pallavi,001,2023-10-09_13h44.21.232,Sequential Learning,2023.1.3,59.88325160904184,
150,v,,,,,6,3,27,1,710.9823258999968,711.9822122000041,711.9822122000041,711.9822122000041,711.9822122000041,711.9822122000041,712.982379699999,712.982379699999,v,1,0.48857260000659153,None,pallavi,001,2023-10-09_13h44.21.232,Sequential Learning,2023.1.3,59.88325160904184,
-150,z,,,,,7,0,28,3,713.4989950000308,714.4990210999968,714.4990210999968,714.4990210999968,714.4990210999968,714.4990210999968,715.4991689000162,715.4991689000162,x,0,1.6714120999677107,None,pallavi,001,2023-10-09_13h44.21.232,Sequential Learning,2023.1.3,59.88325160904184,
-50,x,,,,,7,1,29,0,717.1989851000253,718.199186300044,718.199186300044,718.199186300044,718.199186300044,718.199186300044,719.1990466000279,719.1990466000279,x,1,0.6625522999675013,None,pallavi,001,2023-10-09_13h44.21.232,Sequential Learning,2023.1.3,59.88325160904184,
-150,z,,,,,7,2,30,3,719.8822382000508,720.8822996999952,720.8822996999952,720.8822996999952,720.8822996999952,720.8822996999952,721.882358300034,721.882358300034,z,1,0.6952767000184394,None,pallavi,001,2023-10-09_13h44.21.232,Sequential Learning,2023.1.3,59.88325160904184,
50,c,,,,,7,3,31,2,722.5989564000047,723.5992521000444,723.5992521000444,723.5992521000444,723.5992521000444,723.5992521000444,724.5990907000378,724.5990907000378,c,1,0.9338940000161529,None,pallavi,001,2023-10-09_13h44.21.232,Sequential Learning,2023.1.3,59.88325160904184,
-50,x,,,,,8,0,32,0,725.5655880999984,726.5655830000178,726.5655830000178,726.5655830000178,726.5655830000178,726.5655830000178,727.5655913000228,727.5655913000228,x,1,0.7561608999967575,None,pallavi,001,2023-10-09_13h44.21.232,Sequential Learning,2023.1.3,59.88325160904184,
-150,z,,,,,8,1,33,3,728.3490260000108,729.3489496000111,729.3489496000111,729.3489496000111,729.3489496000111,729.3489496000111,730.3491607000469,730.3491607000469,z,1,0.6639462999883108,None,pallavi,001,2023-10-09_13h44.21.232,Sequential Learning,2023.1.3,59.88325160904184,
150,v,,,,,8,2,34,1,731.0322185000405,732.0157386999927,732.0157386999927,732.0157386999927,732.0157386999927,732.0323136000079,733.0157438000315,733.0157438000315,v,1,0.630522999970708,None,pallavi,001,2023-10-09_13h44.21.232,Sequential Learning,2023.1.3,59.88325160904184,
-50,x,,,,,8,3,35,0,733.6654700000072,734.6655838000006,734.6655838000006,734.6655838000006,734.6655838000006,734.6655838000006,735.6656214999966,735.6656214999966,x,1,0.8369161000009626,None,pallavi,001,2023-10-09_13h44.21.232,Sequential Learning,2023.1.3,59.88325160904184,
50,c,,,,,9,0,36,2,736.5324181000469,737.5324040999985,737.5324040999985,737.5324040999985,737.5324040999985,737.5324040999985,738.5322537000175,738.5322537000175,c,1,1.0775953000411391,None,pallavi,001,2023-10-09_13h44.21.232,Sequential Learning,2023.1.3,59.88325160904184,
150,v,,,,,9,1,37,1,739.6322410000139,740.6324570000288,740.6324570000288,740.6324570000288,740.6324570000288,740.6324570000288,741.6320923000458,741.6320923000458,v,1,1.1343676000251435,None,pallavi,001,2023-10-09_13h44.21.232,Sequential Learning,2023.1.3,59.88325160904184,
-50,x,,,,,9,2,38,0,742.7988907000399,743.7991508000414,743.7991508000414,743.7991508000414,743.7991508000414,743.7991508000414,744.7991817000438,744.7991817000438,x,1,0.9949520999798551,None,pallavi,001,2023-10-09_13h44.21.232,Sequential Learning,2023.1.3,59.88325160904184,
150,v,,,,,9,3,39,1,745.8156096000457,746.8157732000109,746.8157732000109,746.8157732000109,746.8157732000109,746.8157732000109,747.8155519000138,747.8155519000138,v,1,0.462614800024312,None,pallavi,001,2023-10-09_13h44.21.232,Sequential Learning,2023.1.3,59.88325160904184,
150,v,,,,,10,0,40,1,748.2988524000393,749.2991553000174,749.2991553000174,749.2991553000174,749.2991553000174,749.2991553000174,750.2990748000448,750.2990748000448,v,1,0.38046389998635277,None,pallavi,001,2023-10-09_13h44.21.232,Sequential Learning,2023.1.3,59.88325160904184,
-150,z,,,,,10,1,41,3,750.6988144000061,751.699073900003,751.699073900003,751.699073900003,751.699073900003,751.699073900003,752.6988992000115,752.6988992000115,z,1,0.7457205000100657,None,pallavi,001,2023-10-09_13h44.21.232,Sequential Learning,2023.1.3,59.88325160904184,
50,c,,,,,10,2,42,2,753.4657420000294,754.4657851000084,754.4657851000084,754.4657851000084,754.4657851000084,754.4657851000084,755.4655193000217,755.4655193000217,c,1,0.9116173000074923,None,pallavi,001,2023-10-09_13h44.21.232,Sequential Learning,2023.1.3,59.88325160904184,
150,v,,,,,10,3,43,1,756.3990412999992,757.3990196000086,757.3990196000086,757.3990196000086,757.3990196000086,757.3990196000086,758.3990939000505,758.3990939000505,v,1,1.0031617999775335,None,pallavi,001,2023-10-09_13h44.21.232,Sequential Learning,2023.1.3,59.88325160904184,
50,c,,,,,11,0,44,2,759.4323088999954,760.4323635000037,760.4323635000037,760.4323635000037,760.4323635000037,760.4323635000037,761.432389100024,761.432389100024,c,1,0.5659984999801964,None,pallavi,001,2023-10-09_13h44.21.232,Sequential Learning,2023.1.3,59.88325160904184,
150,v,,,,,11,1,45,1,762.0155511000194,763.0157372000394,763.0157372000394,763.0157372000394,763.0157372000394,763.0157372000394,764.0154769000364,764.0154769000364,v,1,0.6493804000201635,None,pallavi,001,2023-10-09_13h44.21.232,Sequential Learning,2023.1.3,59.88325160904184,
50,c,,,,,11,2,46,2,764.6821875000023,765.6823722000117,765.6823722000117,765.6823722000117,765.6823722000117,765.6823722000117,766.6821757000289,766.6821757000289,c,1,0.7412279999698512,None,pallavi,001,2023-10-09_13h44.21.232,Sequential Learning,2023.1.3,59.88325160904184,
-50,x,,,,,11,3,47,0,767.4488896999974,768.4490133000072,768.4490133000072,768.4490133000072,768.4490133000072,768.4490133000072,769.4491777000367,769.4491777000367,x,1,2.9721466999617405,None,pallavi,001,2023-10-09_13h44.21.232,Sequential Learning,2023.1.3,59.88325160904184,
-50,x,,,,,12,0,48,0,772.4488643000368,773.4489445000072,773.4489445000072,773.4489445000072,773.4489445000072,773.4489445000072,774.4489729000488,774.4489729000488,x,1,1.2840619999915361,None,pallavi,001,2023-10-09_13h44.21.232,Sequential Learning,2023.1.3,59.88325160904184,
150,v,,,,,12,1,49,1,775.7654039000045,776.7656000000425,776.7656000000425,776.7656000000425,776.7656000000425,776.7656000000425,777.7654209000175,777.7654209000175,v,1,1.2449595000362024,None,pallavi,001,2023-10-09_13h44.21.232,Sequential Learning,2023.1.3,59.88325160904184,
-50,x,,,,,12,2,50,0,779.0321916000103,780.0323028000421,780.0323028000421,780.0323028000421,780.0323028000421,780.0323028000421,781.0323413000442,781.0323413000442,x,1,0.94891610002378,None,pallavi,001,2023-10-09_13h44.21.232,Sequential Learning,2023.1.3,59.88325160904184,
-150,z,,,,,12,3,51,3,781.9987623000052,782.9991263000411,782.9991263000411,782.9991263000411,782.9991263000411,782.9991263000411,783.9989663000451,783.9989663000451,z,1,1.1905893000075594,None,pallavi,001,2023-10-09_13h44.21.232,Sequential Learning,2023.1.3,59.88325160904184,
-150,z,,,,,13,0,52,3,785.2155929,786.2157996000024,786.2157996000024,786.2157996000024,786.2157996000024,786.2157996000024,787.2153541000444,787.2153541000444,z,1,1.431935100001283,None,pallavi,001,2023-10-09_13h44.21.232,Sequential Learning,2023.1.3,59.88325160904184,
50,c,,,,,13,1,53,2,788.6655392000102,789.6654532999964,789.6654532999964,789.6654532999964,789.6654532999964,789.6654532999964,790.6655254000216,790.6655254000216,c,1,0.8254628999857232,None,pallavi,001,2023-10-09_13h44.21.232,Sequential Learning,2023.1.3,59.88325160904184,
50,c,,,,,13,2,54,2,791.5157833000412,792.5157318999991,792.5157318999991,792.5157318999991,792.5157318999991,792.5157318999991,793.5155659000156,793.5155659000156,c,1,0.6821458000340499,None,pallavi,001,2023-10-09_13h44.21.232,Sequential Learning,2023.1.3,59.88325160904184,
50,c,,,,,13,3,55,2,794.2155137000373,795.2156364000402,795.2156364000402,795.2156364000402,795.2156364000402,795.2156364000402,796.2156303999946,796.2156303999946,c,1,0.5474852999905124,None,pallavi,001,2023-10-09_13h44.21.232,Sequential Learning,2023.1.3,59.88325160904184,
50,c,,,,,14,0,56,2,796.7823254000396,797.7824555000407,797.7824555000407,797.7824555000407,797.7824555000407,797.7824555000407,798.7824237000314,798.7824237000314,c,1,0.4044611999997869,None,pallavi,001,2023-10-09_13h44.21.232,Sequential Learning,2023.1.3,59.88325160904184,
-150,z,,,,,14,1,57,3,799.2154308000463,800.1990482000401,800.1990482000401,800.1990482000401,800.1990482000401,800.2155500000226,801.1987896000501,801.1987896000501,z,1,2.8792166000348516,None,pallavi,001,2023-10-09_13h44.21.232,Sequential Learning,2023.1.3,59.88325160904184,
150,v,,,,,14,2,58,1,804.0991000999929,805.0988702000468,805.0988702000468,805.0988702000468,805.0988702000468,805.0988702000468,806.0990147000412,806.0990147000412,v,1,1.5336922000278719,None,pallavi,001,2023-10-09_13h44.21.232,Sequential Learning,2023.1.3,59.88325160904184,
150,v,,,,,14,3,59,1,807.649145900039,808.6488355000038,808.6488355000038,808.6488355000038,808.6488355000038,808.6488355000038,809.6486525000073,809.6486525000073,v,1,1.0977397999959067,None,pallavi,001,2023-10-09_13h44.21.232,Sequential Learning,2023.1.3,59.88325160904184,
150,v,,,,,15,0,60,1,810.7654384000343,811.7654475000454,811.7654475000454,811.7654475000454,811.7654475000454,811.7654475000454,812.7655882000108,812.7655882000108,v,1,2.065767199965194,None,pallavi,001,2023-10-09_13h44.21.232,Sequential Learning,2023.1.3,59.88325160904184,
50,c,,,,,15,1,61,2,814.8488210000214,815.8489678000333,815.8489678000333,815.8489678000333,815.8489678000333,815.8489678000333,816.848894900002,816.848894900002,c,1,2.2497686999849975,None,pallavi,001,2023-10-09_13h44.21.232,Sequential Learning,2023.1.3,59.88325160904184,
50,c,,,,,15,2,62,2,819.1155206999974,820.1154591999948,820.1154591999948,820.1154591999948,820.1154591999948,820.1154591999948,821.1155557000311,821.1155557000311,c,1,1.5657485999981873,None,pallavi,001,2023-10-09_13h44.21.232,Sequential Learning,2023.1.3,59.88325160904184,
150,v,,,,,15,3,63,1,822.6988602000056,823.6989375000121,823.6989375000121,823.6989375000121,823.6989375000121,823.6989375000121,824.6988339000382,824.6988339000382,v,1,1.4810628999839537,None,pallavi,001,2023-10-09_13h44.21.232,Sequential Learning,2023.1.3,59.88325160904184,
-150,z,,,,,16,0,64,3,826.1987756000017,827.1987735000439,827.1987735000439,827.1987735000439,827.1987735000439,827.1987735000439,828.1990054000053,828.1990054000053,z,1,2.298923800000921,None,pallavi,001,2023-10-09_13h44.21.232,Sequential Learning,2023.1.3,59.88325160904184,
-50,x,,,,,16,1,65,0,830.5154433000134,831.5152935000369,831.5152935000369,831.5152935000369,831.5152935000369,831.5152935000369,832.5156247999985,832.5156247999985,x,1,1.20029649999924,None,pallavi,001,2023-10-09_13h44.21.232,Sequential Learning,2023.1.3,59.88325160904184,
-150,z,,,,,16,2,66,3,833.7487124000327,834.748804300034,834.748804300034,834.748804300034,834.748804300034,834.748804300034,835.7490052999929,835.7490052999929,z,1,1.4045467000105418,None,pallavi,001,2023-10-09_13h44.21.232,Sequential Learning,2023.1.3,59.88325160904184,
150,v,,,,,16,3,67,1,837.1822496000095,838.1824943000101,838.1824943000101,838.1824943000101,838.1824943000101,838.1824943000101,839.1821224000305,839.1821224000305,v,1,1.3430496999644674,None,pallavi,001,2023-10-09_13h44.21.232,Sequential Learning,2023.1.3,59.88325160904184,
50,c,,,,,17,0,68,2,840.5487294000341,841.5489052000339,841.5489052000339,841.5489052000339,841.5489052000339,841.5489052000339,842.548910100013,842.548910100013,c,1,0.9578258999972604,None,pallavi,001,2023-10-09_13h44.21.232,Sequential Learning,2023.1.3,59.88325160904184,
50,c,,,,,17,1,69,2,843.5320338000311,844.5323458000203,844.5323458000203,844.5323458000203,844.5323458000203,844.5323458000203,845.5321732000448,845.5321732000448,c,1,1.1774283000268042,None,pallavi,001,2023-10-09_13h44.21.232,Sequential Learning,2023.1.3,59.88325160904184,
150,v,,,,,17,2,70,1,846.7321150000207,847.7321045999997,847.7321045999997,847.7321045999997,847.7321045999997,847.7321045999997,848.7322389000328,848.7322389000328,v,1,0.9846547999768518,None,pallavi,001,2023-10-09_13h44.21.232,Sequential Learning,2023.1.3,59.88325160904184,
-50,x,,,,,17,3,71,0,849.7487700000056,850.7489590000478,850.7489590000478,850.7489590000478,850.7489590000478,850.7489590000478,851.7490850000177,851.7490850000177,x,1,1.9029336999519728,None,pallavi,001,2023-10-09_13h44.21.232,Sequential Learning,2023.1.3,59.88325160904184,
150,v,,,,,18,0,72,1,853.682025999995,854.6822066000313,854.6822066000313,854.6822066000313,854.6822066000313,854.6822066000313,855.6654921000008,855.6654921000008,v,1,1.3150170000153594,None,pallavi,001,2023-10-09_13h44.21.232,Sequential Learning,2023.1.3,59.88325160904184,
150,v,,,,,18,1,73,1,856.9988289000466,857.9988095000153,857.9988095000153,857.9988095000153,857.9988095000153,857.9988095000153,858.9987889000331,858.9987889000331,v,1,0.6064793999539688,None,pallavi,001,2023-10-09_13h44.21.232,Sequential Learning,2023.1.3,59.88325160904184,
-150,z,,,,,18,2,74,3,859.632064800011,860.6321184000117,860.6321184000117,860.6321184000117,860.6321184000117,860.6321184000117,861.6321732000215,861.6321732000215,z,1,0.8059962000115775,None,pallavi,001,2023-10-09_13h44.21.232,Sequential Learning,2023.1.3,59.88325160904184,
-150,z,,,,,18,3,75,3,862.4655558000086,863.4653471000493,863.4653471000493,863.4653471000493,863.4653471000493,863.4653471000493,864.4654717000085,864.4654717000085,z,1,0.7131664999760687,None,pallavi,001,2023-10-09_13h44.21.232,Sequential Learning,2023.1.3,59.88325160904184,
50,c,,,,,19,0,76,2,865.1987022000249,866.1988148000091,866.1988148000091,866.1988148000091,866.1988148000091,866.1988148000091,867.198926800047,867.198926800047,c,1,0.9395302000339143,None,pallavi,001,2023-10-09_13h44.21.232,Sequential Learning,2023.1.3,59.88325160904184,
-50,x,,,,,19,1,77,0,868.1654330000165,869.1669301000074,869.1669301000074,869.1669301000074,869.1669301000074,869.1669301000074,870.1653423000243,870.1653423000243,x,1,0.7838090999866836,None,pallavi,001,2023-10-09_13h44.21.232,Sequential Learning,2023.1.3,59.88325160904184,
-150,z,,,,,19,2,78,3,870.9653446000302,871.9652937999927,871.9652937999927,871.9652937999927,871.9652937999927,871.9652937999927,872.9655214000377,872.9655214000377,z,1,0.744476499967277,None,pallavi,001,2023-10-09_13h44.21.232,Sequential Learning,2023.1.3,59.88325160904184,
-50,x,,,,,19,3,79,0,873.732090400008,874.7320830000099,874.7320830000099,874.7320830000099,874.7320830000099,874.7320830000099,875.71526550001,875.71526550001,x,1,0.9358259000000544,None,pallavi,001,2023-10-09_13h44.21.232,Sequential Learning,2023.1.3,59.88325160904184,
-50,x,,,,,20,0,80,0,876.682160300028,877.682209599996,877.682209599996,877.682209599996,877.682209599996,877.682209599996,878.6820341999992,878.6820341999992,x,1,0.8411729999934323,None,pallavi,001,2023-10-09_13h44.21.232,Sequential Learning,2023.1.3,59.88325160904184,
-150,z,,,,,20,1,81,3,879.5488620999968,880.5488345000194,880.5488345000194,880.5488345000194,880.5488345000194,880.5488345000194,881.5488599000382,881.5488599000382,z,1,0.8913848000229336,None,pallavi,001,2023-10-09_13h44.21.232,Sequential Learning,2023.1.3,59.88325160904184,
-50,x,,,,,20,2,82,0,882.4655178000103,883.4654994000448,883.4654994000448,883.4654994000448,883.4654994000448,883.4654994000448,884.4653519000276,884.4653519000276,x,1,1.1371798999607563,None,pallavi,001,2023-10-09_13h44.21.232,Sequential Learning,2023.1.3,59.88325160904184,
-150,z,,,,,20,3,83,3,885.6320073000388,886.6322266000207,886.6322266000207,886.6322266000207,886.6322266000207,886.6322266000207,887.6322473000037,887.6322473000037,z,1,1.3820938999997452,None,pallavi,001,2023-10-09_13h44.21.232,Sequential Learning,2023.1.3,59.88325160904184,
150,v,,,,,21,0,84,1,889.0320637000259,890.0323697000276,890.0323697000276,890.0323697000276,890.0323697000276,890.0323697000276,891.0320702000172,891.0320702000172,v,1,1.1997834999929182,None,pallavi,001,2023-10-09_13h44.21.232,Sequential Learning,2023.1.3,59.88325160904184,
-150,z,,,,,21,1,85,3,892.2485986000393,893.2511852000025,893.2511852000025,893.2511852000025,893.2511852000025,893.2511852000025,894.2487108000205,894.2487108000205,z,1,0.8454695999971591,None,pallavi,001,2023-10-09_13h44.21.232,Sequential Learning,2023.1.3,59.88325160904184,
-50,x,,,,,21,2,86,0,895.1152418000274,896.1154193000402,896.1154193000402,896.1154193000402,896.1154193000402,896.1154193000402,897.1156074000173,897.1156074000173,x,1,0.7602537000202574,None,pallavi,001,2023-10-09_13h44.21.232,Sequential Learning,2023.1.3,59.88325160904184,
50,c,,,,,21,3,87,2,897.8988527000183,898.898889300006,898.898889300006,898.898889300006,898.898889300006,898.898889300006,899.8989322000416,899.8989322000416,c,1,1.1527736999560148,None,pallavi,001,2023-10-09_13h44.21.232,Sequential Learning,2023.1.3,59.88325160904184,
50,c,,,,,22,0,88,2,901.0819605000434,902.0651297000004,902.0651297000004,902.0651297000004,902.0651297000004,902.0818122000201,903.082198499993,903.082198499993,c,1,0.8297020000172779,None,pallavi,001,2023-10-09_13h44.21.232,Sequential Learning,2023.1.3,59.88325160904184,
-50,x,,,,,22,1,89,0,903.9321352000115,904.9322993000387,904.9322993000387,904.9322993000387,904.9322993000387,904.9322993000387,905.9319793000468,905.9319793000468,x,1,0.9508828999823891,None,pallavi,001,2023-10-09_13h44.21.232,Sequential Learning,2023.1.3,59.88325160904184,
-50,x,,,,,22,2,90,0,906.9151945000049,907.9154773000046,907.9154773000046,907.9154773000046,907.9154773000046,907.9154773000046,908.9151506000198,908.9151506000198,x,1,0.7859521000063978,None,pallavi,001,2023-10-09_13h44.21.232,Sequential Learning,2023.1.3,59.88325160904184,
150,v,,,,,22,3,91,1,909.7320728000486,910.7320135000045,910.7320135000045,910.7320135000045,910.7320135000045,910.7320135000045,911.7322909000213,911.7322909000213,v,1,1.856094699993264,None,pallavi,001,2023-10-09_13h44.21.232,Sequential Learning,2023.1.3,59.88325160904184,
50,c,,,,,23,0,92,2,913.6152650000295,914.6154690000112,914.6154690000112,914.6154690000112,914.6154690000112,914.6154690000112,915.6152310000034,915.6152310000034,c,1,0.8470787000260316,None,pallavi,001,2023-10-09_13h44.21.232,Sequential Learning,2023.1.3,59.88325160904184,
-50,x,,,,,23,1,93,0,916.4819526000065,917.4823148000287,917.4823148000287,917.4823148000287,917.4823148000287,917.4823148000287,918.4822393000359,918.4822393000359,x,1,0.9425822999910451,None,pallavi,001,2023-10-09_13h44.21.232,Sequential Learning,2023.1.3,59.88325160904184,
-50,x,,,,,23,2,94,0,919.4487930000178,920.4488872000366,920.4488872000366,920.4488872000366,920.4488872000366,920.4488872000366,921.448933000036,921.448933000036,x,1,1.6848461999907158,None,pallavi,001,2023-10-09_13h44.21.232,Sequential Learning,2023.1.3,59.88325160904184,
-150,z,,,,,23,3,95,3,923.1652367000352,924.1652234000503,924.1652234000503,924.1652234000503,924.1652234000503,924.1652234000503,925.1653754000436,925.1653754000436,z,1,0.9866641000262462,None,pallavi,001,2023-10-09_13h44.21.232,Sequential Learning,2023.1.3,59.88325160904184,
50,c,,,,,24,0,96,2,926.1819014000357,927.1821421000059,927.1821421000059,927.1821421000059,927.1821421000059,927.1821421000059,928.1821265000035,928.1821265000035,c,1,1.1561607000185177,None,pallavi,001,2023-10-09_13h44.21.232,Sequential Learning,2023.1.3,59.88325160904184,
-50,x,,,,,24,1,97,0,929.3653614000068,930.3654077000101,930.3654077000101,930.3654077000101,930.3654077000101,930.3654077000101,931.3651463999995,931.3651463999995,x,1,1.0243214999791235,None,pallavi,001,2023-10-09_13h44.21.232,Sequential Learning,2023.1.3,59.88325160904184,
-50,x,,,,,24,2,98,0,932.4154309000005,933.4156380000059,933.4156380000059,933.4156380000059,933.4156380000059,933.4156380000059,934.4154586000368,934.4154586000368,x,1,1.0507485000416636,None,pallavi,001,2023-10-09_13h44.21.232,Sequential Learning,2023.1.3,59.88325160904184,
50,c,,,,,24,3,99,2,935.4987984000472,936.4988873000257,936.4988873000257,936.4988873000257,936.4988873000257,936.4988873000257,937.498629800044,937.498629800044,c,1,1.6443550999974832,None,pallavi,001,2023-10-09_13h44.21.232,Sequential Learning,2023.1.3,59.88325160904184,
150,v,,,,,25,0,100,1,939.1651164000505,940.1652642000117,940.1652642000117,940.1652642000117,940.1652642000117,940.1652642000117,941.1653452000464,941.1653452000464,v,1,0.7273334999918006,None,pallavi,001,2023-10-09_13h44.21.232,Sequential Learning,2023.1.3,59.88325160904184,
50,c,,,,,25,1,101,2,941.9152720000129,942.9154825000442,942.9154825000442,942.9154825000442,942.9154825000442,942.9154825000442,943.915243800031,943.915243800031,c,1,1.0612573999678716,None,pallavi,001,2023-10-09_13h44.21.232,Sequential Learning,2023.1.3,59.88325160904184,
-50,x,,,,,25,2,102,0,944.9986496000201,945.9987040000269,945.9987040000269,945.9987040000269,945.9987040000269,945.9987040000269,946.9986074000481,946.9986074000481,x,1,0.9340941000264138,None,pallavi,001,2023-10-09_13h44.21.232,Sequential Learning,2023.1.3,59.88325160904184,
-150,z,,,,,25,3,103,3,947.9651582000079,948.9652857000474,948.9652857000474,948.9652857000474,948.9652857000474,948.9652857000474,949.9651294000214,949.9651294000214,z,1,0.8627026000176556,None,pallavi,001,2023-10-09_13h44.21.232,Sequential Learning,2023.1.3,59.88325160904184,
150,v,,,,,26,0,104,1,950.8485521000111,951.8486794000491,951.8486794000491,951.8486794000491,951.8486794000491,951.8486794000491,952.8486189999967,952.8486189999967,v,1,0.8642172000254504,None,pallavi,001,2023-10-09_13h44.21.232,Sequential Learning,2023.1.3,59.88325160904184,
-150,z,,,,,26,1,105,3,953.7319074000116,954.7152859000489,954.7152859000489,954.7152859000489,954.7152859000489,954.7318456000066,955.7152756000287,955.7152756000287,z,1,1.474191699991934,None,pallavi,001,2023-10-09_13h44.21.232,Sequential Learning,2023.1.3,59.88325160904184,
50,c,,,,,26,2,106,2,957.2151531000272,958.2151039000018,958.2151039000018,958.2151039000018,958.2151039000018,958.2151039000018,959.215299500036,959.215299500036,c,1,1.7507704999879934,None,pallavi,001,2023-10-09_13h44.21.232,Sequential Learning,2023.1.3,59.88325160904184,
150,v,,,,,26,3,107,1,960.9987568000215,961.9986036000191,961.9986036000191,961.9986036000191,961.9986036000191,961.9986036000191,962.9985327000031,962.9985327000031,v,1,1.92856380000012,None,pallavi,001,2023-10-09_13h44.21.232,Sequential Learning,2023.1.3,59.88325160904184,
150,v,,,,,27,0,108,1,964.9485171000124,965.9488985000062,965.9488985000062,965.9488985000062,965.9488985000062,965.9488985000062,966.9487500000396,966.9487500000396,v,1,1.251584300014656,None,pallavi,001,2023-10-09_13h44.21.232,Sequential Learning,2023.1.3,59.88325160904184,
50,c,,,,,27,1,109,2,968.2319343000418,969.2322100000456,969.2322100000456,969.2322100000456,969.2322100000456,969.2322100000456,970.2320868000388,970.2320868000388,c,1,1.2072921000071801,None,pallavi,001,2023-10-09_13h44.21.232,Sequential Learning,2023.1.3,59.88325160904184,
150,v,,,,,27,2,110,1,971.4652072000317,972.4653541000444,972.4653541000444,972.4653541000444,972.4653541000444,972.4653541000444,973.4650922000292,973.4650922000292,b,0,0.6133411000482738,None,pallavi,001,2023-10-09_13h44.21.232,Sequential Learning,2023.1.3,59.88325160904184,
150,v,,,,,27,3,111,1,974.0984889999963,975.0985971000046,975.0985971000046,975.0985971000046,975.0985971000046,975.0985971000046,976.0987827000208,976.0987827000208,v,1,1.444444500026293,None,pallavi,001,2023-10-09_13h44.21.232,Sequential Learning,2023.1.3,59.88325160904184,
-150,z,,,,,28,0,112,3,977.565201600024,978.565359900007,978.565359900007,978.565359900007,978.565359900007,978.565359900007,979.5652540000156,979.5652540000156,z,1,0.7705283000250347,None,pallavi,001,2023-10-09_13h44.21.232,Sequential Learning,2023.1.3,59.88325160904184,
50,c,,,,,28,1,113,2,980.3653337000287,981.3654921000125,981.3654921000125,981.3654921000125,981.3654921000125,981.3654921000125,982.3653972000466,982.3653972000466,c,1,0.6062411000020802,None,pallavi,001,2023-10-09_13h44.21.232,Sequential Learning,2023.1.3,59.88325160904184,
50,c,,,,,28,2,114,2,982.9986278000288,983.9984837000375,983.9984837000375,983.9984837000375,983.9984837000375,983.9984837000375,984.9987437000382,984.9987437000382,c,1,2.929420200001914,None,pallavi,001,2023-10-09_13h44.21.232,Sequential Learning,2023.1.3,59.88325160904184,
-150,z,,,,,28,3,115,3,987.94870790001,988.9487789000268,988.9487789000268,988.9487789000268,988.9487789000268,988.9487789000268,989.9487835000036,989.9487835000036,z,1,1.289580799988471,None,pallavi,001,2023-10-09_13h44.21.232,Sequential Learning,2023.1.3,59.88325160904184,
-150,z,,,,,29,0,116,3,991.265248700045,992.2653656000039,992.2653656000039,992.2653656000039,992.2653656000039,992.2653656000039,993.2652368000126,993.2652368000126,z,1,1.6228550000232644,None,pallavi,001,2023-10-09_13h44.21.232,Sequential Learning,2023.1.3,59.88325160904184,
150,v,,,,,29,1,117,1,994.9151277000201,995.9154388000024,995.9154388000024,995.9154388000024,995.9154388000024,995.9154388000024,996.9152263000142,996.9152263000142,v,1,0.7249285000143573,None,pallavi,001,2023-10-09_13h44.21.232,Sequential Learning,2023.1.3,59.88325160904184,
50,c,,,,,29,2,118,2,997.6651907000341,998.6651428000187,998.6651428000187,998.6651428000187,998.6651428000187,998.6651428000187,999.6651284000254,999.6651284000254,c,1,0.7296064000111073,None,pallavi,001,2023-10-09_13h44.21.232,Sequential Learning,2023.1.3,59.88325160904184,
-150,z,,,,,29,3,119,3,1000.4152632000041,1001.4153331000125,1001.4153331000125,1001.4153331000125,1001.4153331000125,1001.4153331000125,1002.4153394000023,1002.4153394000023,z,1,0.4940115999779664,None,pallavi,001,2023-10-09_13h44.21.232,Sequential Learning,2023.1.3,59.88325160904184,
-50,x,,,,,30,0,120,0,1002.9318079000222,1003.9320484000491,1003.9320484000491,1003.9320484000491,1003.9320484000491,1003.9320484000491,1004.9319222000195,1004.9319222000195,x,1,1.7835849999682978,None,pallavi,001,2023-10-09_13h44.21.232,Sequential Learning,2023.1.3,59.88325160904184,
150,v,,,,,30,1,121,1,1006.731804900046,1007.7320756000117,1007.7320756000117,1007.7320756000117,1007.7320756000117,1007.7320756000117,1008.7318547000177,1008.7318547000177,v,1,1.1241001000162214,None,pallavi,001,2023-10-09_13h44.21.232,Sequential Learning,2023.1.3,59.88325160904184,
-50,x,,,,,30,2,122,0,1009.8818311000359,1010.8819303000346,1010.8819303000346,1010.8819303000346,1010.8819303000346,1010.8819303000346,1011.8818770000362,1011.8818770000362,x,1,1.883760800003074,None,pallavi,001,2023-10-09_13h44.21.232,Sequential Learning,2023.1.3,59.88325160904184,
-50,x,,,,,30,3,123,0,1013.7985404999927,1014.7986106000026,1014.7986106000026,1014.7986106000026,1014.7986106000026,1014.7986106000026,1015.7985025999951,1015.7985025999951,x,1,0.7512326000141911,None,pallavi,001,2023-10-09_13h44.21.232,Sequential Learning,2023.1.3,59.88325160904184,
-150,z,,,,,31,0,124,3,1016.5820876000216,1017.5818652000162,1017.5818652000162,1017.5818652000162,1017.5818652000162,1017.5818652000162,1018.5820983000449,1018.5820983000449,z,1,0.715842799982056,None,pallavi,001,2023-10-09_13h44.21.232,Sequential Learning,2023.1.3,59.88325160904184,
-50,x,,,,,31,1,125,0,1019.3151421000366,1020.3152782000252,1020.3152782000252,1020.3152782000252,1020.3152782000252,1020.3152782000252,1021.3153022000333,1021.3153022000333,x,1,0.8336992000113241,None,pallavi,001,2023-10-09_13h44.21.232,Sequential Learning,2023.1.3,59.88325160904184,
-50,x,,,,,31,2,126,0,1022.181845700019,1023.1818923000246,1023.1818923000246,1023.1818923000246,1023.1818923000246,1023.1818923000246,1024.181992900034,1024.181992900034,x,1,0.7732633000123315,None,pallavi,001,2023-10-09_13h44.21.232,Sequential Learning,2023.1.3,59.88325160904184,
150,v,,,,,31,3,127,1,1024.9817715000245,1025.9819600000046,1025.9819600000046,1025.9819600000046,1025.9819600000046,1025.9819600000046,1026.9817689000047,1026.9817689000047,v,1,2.868465700012166,None,pallavi,001,2023-10-09_13h44.21.232,Sequential Learning,2023.1.3,59.88325160904184,
-150,z,,,,,32,0,128,3,1029.8819019999937,1030.882023400045,1030.882023400045,1030.882023400045,1030.882023400045,1030.882023400045,1031.8818668000167,1031.8818668000167,z,1,3.399292799993418,None,pallavi,001,2023-10-09_13h44.21.232,Sequential Learning,2023.1.3,59.88325160904184,
50,c,,,,,32,1,129,2,1035.2986384000396,1036.298644000024,1036.298644000024,1036.298644000024,1036.298644000024,1036.298644000024,1037.2986775000463,1037.2986775000463,c,1,1.643695300037507,None,pallavi,001,2023-10-09_13h44.21.232,Sequential Learning,2023.1.3,59.88325160904184,
-50,x,,,,,32,2,130,0,1038.9649277999997,1039.9650635000435,1039.9650635000435,1039.9650635000435,1039.9650635000435,1039.9650635000435,1040.9652492000023,1040.9652492000023,x,1,2.2856042999774218,None,pallavi,001,2023-10-09_13h44.21.232,Sequential Learning,2023.1.3,59.88325160904184,
-150,z,,,,,32,3,131,3,1043.2819755999953,1044.281859300041,1044.281859300041,1044.281859300041,1044.281859300041,1044.281859300041,1045.281829500047,1045.281829500047,z,1,1.1102818999788724,None,pallavi,001,2023-10-09_13h44.21.232,Sequential Learning,2023.1.3,59.88325160904184,
-150,z,,,,,33,0,132,3,1046.4148589000106,1047.3987093000324,1047.3987093000324,1047.3987093000324,1047.3987093000324,1047.4152256000089,1048.4153563000145,1048.4153563000145,z,1,0.8896834999904968,None,pallavi,001,2023-10-09_13h44.21.232,Sequential Learning,2023.1.3,59.88325160904184,
-50,x,,,,,33,1,133,0,1049.331976400048,1050.3318858999992,1050.3318858999992,1050.3318858999992,1050.3318858999992,1050.3318858999992,1051.3318457000423,1051.3318457000423,x,1,2.2005162999848835,None,pallavi,001,2023-10-09_13h44.21.232,Sequential Learning,2023.1.3,59.88325160904184,
50,c,,,,,33,2,134,2,1053.5651202000445,1054.5652392000193,1054.5652392000193,1054.5652392000193,1054.5652392000193,1054.5652392000193,1055.5651031000307,1055.5651031000307,c,1,1.8003518999903463,None,pallavi,001,2023-10-09_13h44.21.232,Sequential Learning,2023.1.3,59.88325160904184,
-150,z,,,,,33,3,135,3,1057.3817107000505,1058.3820012999931,1058.3820012999931,1058.3820012999931,1058.3820012999931,1058.3820012999931,1059.3819995000376,1059.3819995000376,z,1,0.8454296999843791,None,pallavi,001,2023-10-09_13h44.21.232,Sequential Learning,2023.1.3,59.88325160904184,
-50,x,,,,,34,0,136,0,1060.2485077000456,1061.2484601000324,1061.2484601000324,1061.2484601000324,1061.2484601000324,1061.2484601000324,1062.248417900002,1062.248417900002,x,1,2.211341300047934,None,pallavi,001,2023-10-09_13h44.21.232,Sequential Learning,2023.1.3,59.88325160904184,
-150,z,,,,,34,1,137,3,1064.4817418000312,1065.4820835000137,1065.4820835000137,1065.4820835000137,1065.4820835000137,1065.4820835000137,1066.4818849000148,1066.4818849000148,z,1,0.8774971000384539,None,pallavi,001,2023-10-09_13h44.21.232,Sequential Learning,2023.1.3,59.88325160904184,
-50,x,,,,,34,2,138,0,1067.3818848000374,1068.3818909000256,1068.3818909000256,1068.3818909000256,1068.3818909000256,1068.3818909000256,1069.3818262999994,1069.3818262999994,x,1,1.2333886999986134,None,pallavi,001,2023-10-09_13h44.21.232,Sequential Learning,2023.1.3,59.88325160904184,
50,c,,,,,34,3,139,2,1070.631862600043,1071.6319804000086,1071.6319804000086,1071.6319804000086,1071.6319804000086,1071.6319804000086,1072.6316855000332,1072.6316855000332,c,1,2.7661735000438057,None,pallavi,001,2023-10-09_13h44.21.232,Sequential Learning,2023.1.3,59.88325160904184,
-150,z,,,,,35,0,140,3,1075.4151966000209,1076.4152054000297,1076.4152054000297,1076.4152054000297,1076.4152054000297,1076.4152054000297,1077.415194900008,1077.415194900008,z,1,0.6719399999710731,None,pallavi,001,2023-10-09_13h44.21.232,Sequential Learning,2023.1.3,59.88325160904184,
-50,x,,,,,35,1,141,0,1078.1151490000193,1079.1150349000236,1079.1150349000236,1079.1150349000236,1079.1150349000236,1079.1150349000236,1080.1150310999947,1080.1150310999947,x,1,1.4276899000396952,None,pallavi,001,2023-10-09_13h44.21.232,Sequential Learning,2023.1.3,59.88325160904184,
-150,z,,,,,35,2,142,3,1081.5649610999972,1082.565146000008,1082.565146000008,1082.565146000008,1082.565146000008,1082.565146000008,1083.5650795000256,1083.5650795000256,z,1,0.7532279000151902,None,pallavi,001,2023-10-09_13h44.21.232,Sequential Learning,2023.1.3,59.88325160904184,
-50,x,,,,,35,3,143,0,1084.3485716000432,1085.3486562000471,1085.3486562000471,1085.3486562000471,1085.3486562000471,1085.3486562000471,1086.3485021000379,1086.3485021000379,x,1,13.453969200025313,None,pallavi,001,2023-10-09_13h44.21.232,Sequential Learning,2023.1.3,59.88325160904184,
-50,x,,,,,36,0,144,0,1099.8317735000164,1100.8320556000108,1100.8320556000108,1100.8320556000108,1100.8320556000108,1100.8320556000108,1101.83167460002,1101.83167460002,x,1,0.524036199960392,None,pallavi,001,2023-10-09_13h44.21.232,Sequential Learning,2023.1.3,59.88325160904184,
-150,z,,,,,36,1,145,3,1102.381688399997,1103.3819270000095,1103.3819270000095,1103.3819270000095,1103.3819270000095,1103.3819270000095,1104.3818320000428,1104.3818320000428,z,1,0.7744632000103593,None,pallavi,001,2023-10-09_13h44.21.232,Sequential Learning,2023.1.3,59.88325160904184,
50,c,,,,,36,2,146,2,1105.1816926000174,1106.1815335000283,1106.1815335000283,1106.1815335000283,1106.1815335000283,1106.1815335000283,1107.1819401000394,1107.1819401000394,c,1,1.108302399981767,None,pallavi,001,2023-10-09_13h44.21.232,Sequential Learning,2023.1.3,59.88325160904184,
-50,x,,,,,36,3,147,0,1108.3149167000083,1109.314945399994,1109.314945399994,1109.314945399994,1109.314945399994,1109.314945399994,1110.3150467000087,1110.3150467000087,x,1,1.2957422000472434,None,pallavi,001,2023-10-09_13h44.21.232,Sequential Learning,2023.1.3,59.88325160904184,
150,v,,,,,37,0,148,1,1111.6318600000232,1112.6318787000491,1112.6318787000491,1112.6318787000491,1112.6318787000491,1112.6318787000491,1113.6317889000056,1113.6317889000056,v,1,1.200471100048162,None,pallavi,001,2023-10-09_13h44.21.232,Sequential Learning,2023.1.3,59.88325160904184,
-150,z,,,,,37,1,149,3,1114.8650674000382,1115.8651090000058,1115.8651090000058,1115.8651090000058,1115.8651090000058,1115.8651090000058,1116.8650395000004,1116.8650395000004,z,1,0.8174351999768987,None,pallavi,001,2023-10-09_13h44.21.232,Sequential Learning,2023.1.3,59.88325160904184,
-50,x,,,,,37,2,150,0,1117.7149456000188,1118.7150849000318,1118.7150849000318,1118.7150849000318,1118.7150849000318,1118.7150849000318,1119.7150563000469,1119.7150563000469,x,1,0.5947105999803171,None,pallavi,001,2023-10-09_13h44.21.232,Sequential Learning,2023.1.3,59.88325160904184,
-50,x,,,,,37,3,151,0,1120.33184910001,1121.331683300028,1121.331683300028,1121.331683300028,1121.331683300028,1121.331683300028,1122.33187730005,1122.33187730005,x,1,0.47079849999863654,None,pallavi,001,2023-10-09_13h44.21.232,Sequential Learning,2023.1.3,59.88325160904184,
-150,z,,,,,38,0,152,3,1122.8317871000036,1123.831806400034,1123.831806400034,1123.831806400034,1123.831806400034,1123.831806400034,1124.8319334000116,1124.8319334000116,z,1,0.7980349000426941,None,pallavi,001,2023-10-09_13h44.21.232,Sequential Learning,2023.1.3,59.88325160904184,
-150,z,,,,,38,1,153,3,1125.6483084000065,1126.648362100008,1126.648362100008,1126.648362100008,1126.648362100008,1126.648362100008,1127.6484159000101,1127.6484159000101,z,1,1.0126456000143662,None,pallavi,001,2023-10-09_13h44.21.232,Sequential Learning,2023.1.3,59.88325160904184,
150,v,,,,,38,2,154,1,1128.6816253000288,1129.6819385000272,1129.6819385000272,1129.6819385000272,1129.6819385000272,1129.6819385000272,1130.681746200018,1130.681746200018,v,1,1.2844375999993645,None,pallavi,001,2023-10-09_13h44.21.232,Sequential Learning,2023.1.3,59.88325160904184,
150,v,,,,,38,3,155,1,1131.9986444000388,1132.9986910000443,1132.9986910000443,1132.9986910000443,1132.9986910000443,1132.9986910000443,1133.9985557000036,1133.9985557000036,v,1,3.667663200001698,None,pallavi,001,2023-10-09_13h44.21.232,Sequential Learning,2023.1.3,59.88325160904184,
-150,z,,,,,39,0,156,3,1137.6985060000443,1138.6984332000138,1138.6984332000138,1138.6984332000138,1138.6984332000138,1138.6984332000138,1139.6983224000433,1139.6983224000433,z,1,0.9784194999956526,None,pallavi,001,2023-10-09_13h44.21.232,Sequential Learning,2023.1.3,59.88325160904184,
50,c,,,,,39,1,157,2,1140.6982907000347,1141.6986137000495,1141.6986137000495,1141.6986137000495,1141.6986137000495,1141.6986137000495,1142.698406600044,1142.698406600044,c,1,1.5607602000236511,None,pallavi,001,2023-10-09_13h44.21.232,Sequential Learning,2023.1.3,59.88325160904184,
